Subject,Age,Gender,Blind,Block,Trial,Sentence,Numeral,Colored_dots,Couleur_cible,Couleur_filler,Nombre_caseN,Couleurcible_caseN,Nombre_caseS,Couleurcible_caseS,Nombre_caseE,Couleurcible_caseE,Nombre_caseO,Couleurcible_caseO,Distance,Expected_value,Condition,Response,Response_time,Group
1,57,F,N,1,1,exactly,5,5,red,green,4,0,3,0,2,1,3,1,0,TRUE,Equal,99.73890339,8392,no
1,57,F,N,1,2,more-than,6,9,green,yellow,5,1,2,0,4,1,6,0,3,TRUE,Superior,99.73890339,9173,no
1,57,F,N,1,3,less-than,4,3,green,black,2,1,1,0,1,0,6,0,-1,TRUE,Inferior,100,7247,no
1,57,F,N,1,4,exactly,5,5,green,black,5,1,3,0,1,0,5,0,0,TRUE,Equal,100,5796,yes
1,57,F,N,1,5,exactly,4,6,blue,green,3,1,2,0,2,1,1,1,2,?,Superior,0,6880,no
1,57,F,N,1,6,no-less-than,4,6,blue,red,3,1,2,1,1,0,1,1,2,TRUE,Superior,0,18073,no
1,57,F,N,1,7,no-more-than,5,6,blue,green,3,0,4,1,5,0,2,1,1,FALSE,Superior,0,11942,no
1,57,F,N,1,8,exactly,5,7,green,blue,5,0,4,0,1,1,6,1,2,?,Superior,0,7932,no
1,57,F,N,1,9,no-less-than,6,8,green,red,4,0,3,1,3,1,2,1,2,TRUE,Superior,0,44711,no
1,57,F,N,1,10,no-less-than,4,5,red,black,1,1,2,0,3,1,1,1,1,TRUE,Superior,0,8310,no
1,57,F,N,1,11,no-more-than,5,4,green,black,2,0,4,0,6,0,2,1,-1,TRUE,Inferior,100,9605,no
1,57,F,N,1,12,exactly,4,4,green,red,6,0,6,0,1,0,4,1,0,TRUE,Equal,100,3918,yes
1,57,F,N,1,13,exactly,5,6,red,yellow,6,0,1,1,1,1,4,1,1,?,Superior,0,3904,no
1,57,F,N,1,14,exactly,4,6,blue,yellow,5,0,1,0,2,1,4,1,2,?,Superior,4.177545692,3445,yes
1,57,F,N,1,15,more-than,5,3,green,red,1,0,4,1,2,0,4,0,-2,FALSE,Inferior,0,5863,no
1,57,F,N,1,16,no-less-than,6,4,green,black,1,0,6,1,2,0,2,0,-2,FALSE,Inferior,100,29282,no
1,57,F,N,1,17,no-less-than,5,6,green,red,3,0,2,1,1,1,3,1,1,TRUE,Superior,0,13146,no
1,57,F,N,1,18,more-than,4,6,red,black,2,0,3,1,2,0,3,1,2,TRUE,Superior,100,3576,no
1,57,F,N,1,19,exactly,5,3,red,yellow,3,1,4,0,4,0,4,0,-2,FALSE,Inferior,0,3482,no
1,57,F,N,1,20,exactly,6,9,red,black,3,1,5,0,4,0,6,1,3,?,Superior,0,4016,yes
1,57,F,N,1,21,exactly,5,6,green,black,1,1,5,1,1,0,1,0,1,?,Superior,0,3564,yes
1,57,F,N,1,22,exactly,4,7,blue,red,1,0,4,1,2,0,3,1,3,?,Superior,0,3805,yes
1,57,F,N,1,23,no-less-than,5,2,red,blue,6,0,6,0,6,0,1,1,-3,FALSE,Inferior,0,8724,no
1,57,F,N,1,24,no-less-than,5,7,green,yellow,2,1,4,0,4,1,1,1,2,TRUE,Superior,0,5091,no
1,57,F,N,1,25,exactly,5,8,green,yellow,5,1,2,0,3,1,1,0,3,?,Superior,0,3039,yes
1,57,F,N,1,26,less-than,6,7,green,black,2,1,4,1,4,0,1,1,1,FALSE,Superior,0,7958,no
1,57,F,N,1,27,more-than,5,5,red,blue,4,0,6,0,4,1,1,1,0,FALSE,Equal,0,4241,no
1,57,F,N,1,28,less-than,5,2,blue,red,6,0,2,1,3,0,5,0,-3,TRUE,Inferior,100,7215,no
1,57,F,N,1,29,exactly,6,6,red,blue,6,0,1,0,6,1,4,0,0,TRUE,Equal,100,3967,yes
1,57,F,N,1,30,less-than,4,2,blue,red,5,1,3,0,6,0,4,0,-2,TRUE,Inferior,0.522193211,3557,no
1,57,F,N,1,31,less-than,5,8,blue,black,2,0,4,1,4,1,5,0,3,FALSE,Superior,0,10494,no
1,57,F,N,1,32,exactly,6,8,green,red,2,1,2,1,4,1,2,0,2,?,Superior,0,5943,no
1,57,F,N,1,33,no-more-than,6,6,blue,red,2,1,2,1,3,0,2,1,0,TRUE,Equal,100,4488,no
1,57,F,N,1,34,exactly,6,6,red,yellow,2,1,2,1,1,0,2,1,0,TRUE,Equal,100,3239,no
1,57,F,N,1,35,more-than,6,3,blue,green,3,0,3,0,6,0,1,1,-3,FALSE,Inferior,0,4134,no
1,57,F,N,1,36,exactly,4,2,green,red,4,0,3,0,4,0,4,1,-2,FALSE,Inferior,99.73890339,5943,no
1,57,F,N,1,37,no-more-than,5,5,blue,red,1,1,1,0,2,1,2,1,0,TRUE,Equal,0,3853,no
1,57,F,N,1,38,exactly,4,3,green,black,4,0,3,1,5,0,6,0,-1,FALSE,Inferior,0,2785,no
1,57,F,N,1,39,no-less-than,5,4,red,green,3,0,4,0,3,0,1,1,-1,FALSE,Inferior,0,16795,no
1,57,F,N,1,40,more-than,4,3,green,yellow,6,0,5,0,4,0,4,1,-1,FALSE,Inferior,0,3026,no
1,57,F,N,1,41,more-than,6,5,blue,yellow,5,0,6,1,4,0,1,0,-1,FALSE,Inferior,0,7915,no
1,57,F,N,1,42,exactly,4,1,red,yellow,3,0,2,1,6,0,1,0,-3,FALSE,Inferior,0,3984,no
1,57,F,N,1,43,no-less-than,4,1,red,black,1,0,2,1,2,0,2,0,-3,FALSE,Inferior,0,5232,no
1,57,F,N,1,44,less-than,6,9,blue,red,4,0,2,1,2,1,5,1,3,FALSE,Superior,0,6015,no
1,57,F,N,1,45,no-more-than,5,3,green,blue,1,0,4,0,4,0,6,1,-2,TRUE,Inferior,0,6175,no
1,57,F,N,1,46,no-more-than,6,5,red,yellow,4,0,3,1,6,0,1,0,-1,TRUE,Inferior,0,5271,no
1,57,F,N,1,47,no-less-than,6,5,red,yellow,4,0,5,1,6,0,6,0,-1,FALSE,Inferior,0,7499,no
1,57,F,N,1,48,less-than,6,6,red,green,5,0,2,1,4,1,4,0,0,FALSE,Equal,100,17793,no
1,57,F,N,1,49,more-than,5,6,red,green,3,1,1,1,2,0,2,1,1,TRUE,Superior,100,9165,no
1,57,F,N,1,50,exactly,5,7,red,black,1,0,1,0,5,1,2,1,2,?,Superior,0,2960,yes
1,57,F,N,1,51,no-less-than,6,3,red,green,2,1,6,0,1,0,3,0,-3,FALSE,Inferior,0,4140,no
1,57,F,N,1,52,more-than,5,4,green,black,5,0,3,1,6,0,1,0,-1,FALSE,Inferior,0,3557,no
1,57,F,N,1,53,exactly,6,4,blue,red,2,1,5,0,4,0,2,0,-2,FALSE,Inferior,0,4393,no
1,57,F,N,1,54,exactly,4,4,red,green,3,1,3,0,1,0,1,1,0,TRUE,Equal,100,3447,no
1,57,F,N,1,55,no-less-than,6,6,blue,green,1,1,1,1,1,0,4,1,0,TRUE,Equal,100,16441,no
1,57,F,N,1,56,more-than,6,8,blue,red,4,1,5,0,2,1,2,1,2,TRUE,Superior,98.95561358,10479,no
1,57,F,N,1,57,more-than,4,7,red,blue,3,1,2,1,2,1,5,0,3,TRUE,Superior,99.21671018,5152,no
1,57,F,N,1,58,exactly,5,4,blue,green,6,1,6,0,2,0,2,0,-1,FALSE,Inferior,0,3111,no
1,57,F,N,1,59,no-more-than,6,4,red,green,4,0,3,0,4,0,2,1,-2,TRUE,Inferior,0,7206,no
1,57,F,N,1,60,no-more-than,4,7,red,green,2,1,3,1,2,1,5,0,3,FALSE,Superior,0,4084,no
1,57,F,N,1,61,no-more-than,5,8,green,black,6,0,2,0,2,1,6,1,3,FALSE,Superior,0,5631,no
1,57,F,N,1,62,no-less-than,5,3,blue,red,1,0,4,1,4,0,2,0,-2,FALSE,Inferior,0,4692,no
1,57,F,N,1,63,no-less-than,4,3,red,green,3,0,5,0,2,0,5,1,-1,FALSE,Inferior,0,4074,no
1,57,F,N,1,64,exactly,6,8,blue,yellow,6,1,5,0,1,0,2,1,2,?,Superior,0.522193211,4091,yes
1,57,F,N,1,65,less-than,4,4,green,blue,2,0,2,1,6,0,2,1,0,FALSE,Equal,100,3416,no
1,57,F,N,1,66,more-than,4,5,blue,red,5,0,4,0,3,1,2,1,1,TRUE,Superior,0,3571,no
1,57,F,N,1,67,more-than,4,4,red,yellow,1,1,3,0,3,1,2,0,0,FALSE,Equal,100,2902,no
1,57,F,N,1,68,exactly,6,7,green,yellow,4,0,1,1,3,0,6,1,1,?,Superior,0,3201,yes
1,57,F,N,1,69,more-than,6,6,red,green,1,1,4,1,6,0,1,1,0,FALSE,Equal,99.73890339,4007,no
1,57,F,N,1,70,exactly,6,7,red,yellow,3,0,5,0,3,1,4,1,1,?,Superior,0,3900,no
1,57,F,N,1,71,less-than,4,7,green,black,3,1,3,1,3,0,1,1,3,FALSE,Superior,0,3757,no
1,57,F,N,1,72,more-than,5,7,red,yellow,1,1,4,1,2,1,5,0,2,TRUE,Superior,0,4692,no
1,57,F,N,1,73,less-than,5,6,green,black,2,1,1,0,4,1,1,0,1,FALSE,Superior,0,3911,no
1,57,F,N,1,74,more-than,4,1,red,black,4,0,2,1,2,0,3,0,-3,FALSE,Inferior,0.522193211,3274,no
1,57,F,N,1,75,no-less-than,6,9,blue,black,3,0,2,0,4,1,5,1,3,TRUE,Superior,0,3397,no
1,57,F,N,1,76,no-less-than,5,5,green,red,1,1,2,1,1,0,2,1,0,TRUE,Equal,100,3279,no
1,57,F,N,1,77,less-than,4,1,green,yellow,6,0,1,1,5,0,5,0,-3,TRUE,Inferior,0,2956,no
1,57,F,N,1,78,no-more-than,4,3,green,blue,4,0,6,1,4,0,2,0,-1,TRUE,Inferior,0,3283,no
1,57,F,N,1,79,less-than,6,4,blue,yellow,2,0,5,1,4,0,3,0,-2,TRUE,Inferior,0.261096606,4723,no
1,57,F,N,1,80,exactly,5,8,green,red,1,0,4,1,1,1,3,1,3,?,Superior,0.522193211,4577,no
1,57,F,N,1,81,more-than,5,8,blue,red,1,1,3,1,4,1,5,0,3,TRUE,Superior,100,8313,no
1,57,F,N,1,82,no-less-than,4,4,red,blue,1,0,5,0,2,1,2,1,0,TRUE,Equal,100,4243,no
1,57,F,N,1,83,no-more-than,6,3,green,black,3,0,1,0,3,1,3,0,-3,TRUE,Inferior,0,6609,no
1,57,F,N,1,84,more-than,4,2,red,blue,2,0,4,0,3,1,6,0,-2,FALSE,Inferior,0.783289817,6397,no
1,57,F,N,1,85,less-than,5,4,green,black,1,0,6,0,2,1,2,0,-1,TRUE,Inferior,100,3695,no
1,57,F,N,1,86,less-than,6,3,blue,yellow,2,1,3,0,6,0,1,0,-3,TRUE,Inferior,100,7231,no
1,57,F,N,1,87,exactly,6,3,blue,black,2,0,6,0,1,0,5,1,-3,FALSE,Inferior,0,4693,no
1,57,F,N,1,88,less-than,6,5,green,yellow,5,1,5,0,1,0,1,0,-1,TRUE,Inferior,100,4937,no
1,57,F,N,1,89,no-less-than,4,2,red,yellow,4,0,3,0,4,1,6,0,-2,FALSE,Inferior,99.73890339,4857,no
1,57,F,N,1,90,no-more-than,5,7,red,blue,4,1,1,1,4,0,2,1,2,FALSE,Superior,0,11783,no
1,57,F,N,1,91,no-more-than,4,5,red,black,1,1,2,1,4,0,2,1,1,FALSE,Superior,0,5380,no
1,57,F,N,1,92,no-less-than,6,7,red,yellow,5,1,4,0,2,1,4,0,1,TRUE,Superior,0,11191,no
1,57,F,N,1,93,no-more-than,4,4,red,blue,3,1,3,0,5,0,1,1,0,TRUE,Equal,100,3367,no
1,57,F,N,1,94,exactly,5,2,red,blue,6,0,6,1,1,0,6,0,-3,FALSE,Inferior,0,3476,no
1,57,F,N,1,95,exactly,5,5,green,black,1,1,1,1,4,0,3,1,0,TRUE,Equal,100,3898,no
1,57,F,N,1,96,more-than,5,2,green,red,1,0,4,0,3,1,5,0,-3,FALSE,Inferior,0.522193211,3342,no
1,57,F,N,1,97,no-more-than,6,7,red,green,2,1,3,0,6,0,5,1,1,FALSE,Superior,0,3405,no
1,57,F,N,1,98,exactly,4,5,red,blue,4,1,5,0,1,0,1,1,1,?,Superior,0,3692,yes
1,57,F,N,1,99,more-than,6,4,green,black,5,1,1,0,6,0,5,0,-2,FALSE,Inferior,0,3331,no
1,57,F,N,1,100,less-than,4,5,blue,yellow,2,1,6,0,2,1,1,1,1,FALSE,Superior,0,3788,no
1,57,F,N,1,101,no-more-than,6,8,red,yellow,2,1,2,1,2,0,4,1,2,FALSE,Superior,0,8983,no
1,57,F,N,1,102,exactly,6,5,green,blue,4,0,3,0,1,1,4,0,-1,FALSE,Inferior,0.261096606,3142,no
1,57,F,N,1,103,exactly,4,4,green,yellow,2,1,2,0,2,1,6,0,0,TRUE,Equal,100,2493,no
1,57,F,N,1,104,no-more-than,5,2,green,red,2,0,5,1,2,0,3,0,-3,TRUE,Inferior,100,3926,no
1,57,F,N,1,105,less-than,5,7,red,yellow,1,1,2,0,6,1,5,0,2,FALSE,Superior,0,2468,no
1,57,F,N,1,106,less-than,6,8,red,black,3,1,1,0,3,1,2,1,2,FALSE,Superior,0,3816,no
1,57,F,N,1,107,no-less-than,5,8,red,black,4,1,3,0,4,1,4,0,3,TRUE,Superior,0,3948,no
1,57,F,N,1,108,more-than,6,7,blue,black,3,1,3,1,1,1,5,0,1,TRUE,Superior,100,2819,no
1,57,F,N,1,109,exactly,4,5,green,red,1,1,2,1,2,1,1,0,1,?,Superior,0,3500,no
1,57,F,N,1,110,no-more-than,4,2,green,blue,3,1,1,0,5,0,2,0,-2,TRUE,Inferior,0.783289817,5048,no
1,57,F,N,1,111,exactly,6,9,red,yellow,5,1,2,1,2,1,3,0,3,?,Superior,0,3417,no
1,57,F,N,1,112,no-more-than,6,9,red,blue,5,1,2,1,2,0,2,1,3,FALSE,Superior,0,4121,no
1,57,F,N,1,113,exactly,4,7,green,blue,2,1,3,1,2,1,3,0,3,?,Superior,0,2340,no
1,57,F,N,1,114,no-more-than,4,6,red,black,2,1,2,1,4,0,2,1,2,FALSE,Superior,0,2819,no
1,57,F,N,1,115,less-than,4,6,green,blue,4,0,2,1,2,1,2,1,2,FALSE,Superior,0,3387,no
1,57,F,N,1,116,no-less-than,4,7,green,black,5,0,2,1,2,1,3,1,3,TRUE,Superior,0,22249,no
1,57,F,N,1,117,no-more-than,4,1,green,black,6,0,3,0,3,1,1,0,-3,TRUE,Inferior,0,8273,no
1,57,F,N,1,118,less-than,5,3,blue,red,4,0,5,0,6,1,1,0,-2,TRUE,Inferior,0,3998,no
1,57,F,N,1,119,exactly,6,6,blue,green,4,1,1,1,1,1,1,0,0,TRUE,Equal,100,4076,no
1,57,F,N,1,120,less-than,5,5,green,red,1,1,2,1,2,0,2,1,0,FALSE,Equal,100,11178,no
1,57,F,N,2,1,more-than,5,3,blue,red,2,0,1,0,5,1,1,0,-2,FALSE,Inferior,0.261096606,7234,no
1,57,F,N,2,2,less-than,5,8,blue,black,6,1,2,1,6,0,5,0,3,FALSE,Superior,0,14829,no
1,57,F,N,2,3,more-than,6,5,blue,red,4,0,5,0,1,0,5,1,-1,FALSE,Inferior,0,6048,no
1,57,F,N,2,4,no-more-than,5,2,green,red,5,0,2,0,3,1,5,0,-3,TRUE,Inferior,0,4101,no
1,57,F,N,2,5,exactly,4,2,blue,red,3,0,5,0,4,1,5,0,-2,FALSE,Inferior,100,2931,no
1,57,F,N,2,6,no-more-than,4,2,red,yellow,6,1,6,0,6,0,3,0,-2,TRUE,Inferior,0,3919,no
1,57,F,N,2,7,more-than,4,2,blue,yellow,3,0,5,0,2,0,2,1,-2,FALSE,Inferior,0,3892,no
1,57,F,N,2,8,less-than,4,1,blue,green,5,0,5,0,6,1,5,0,-3,TRUE,Inferior,0,4346,no
1,57,F,N,2,9,no-more-than,5,4,red,green,5,0,3,0,3,0,4,1,-1,TRUE,Inferior,0,5396,no
1,57,F,N,2,10,more-than,6,6,red,yellow,2,0,5,0,5,1,1,1,0,FALSE,Equal,0,7120,no
1,57,F,N,2,11,no-less-than,5,4,green,blue,4,0,4,0,6,0,6,1,-1,FALSE,Inferior,0,5159,no
1,57,F,N,2,12,less-than,6,5,red,black,2,0,5,0,2,1,2,0,-1,TRUE,Inferior,100,4971,no
1,57,F,N,2,13,exactly,6,9,green,blue,5,0,3,1,6,1,2,0,3,?,Superior,0,3533,yes
1,57,F,N,2,14,more-than,4,5,red,yellow,3,1,6,0,2,1,6,0,1,TRUE,Superior,100,5087,no
1,57,F,N,2,15,no-more-than,4,5,blue,black,3,0,1,1,1,1,3,1,1,FALSE,Superior,0,4248,no
1,57,F,N,2,16,no-less-than,4,1,green,yellow,4,1,4,0,6,0,1,0,-3,FALSE,Inferior,100,7016,no
1,57,F,N,2,17,more-than,4,7,blue,black,5,0,1,1,3,1,3,1,3,TRUE,Superior,100,4724,no
1,57,F,N,2,18,exactly,6,8,green,black,4,0,6,1,2,1,3,0,2,?,Superior,0,3856,yes
1,57,F,N,2,19,no-more-than,6,9,green,yellow,2,1,6,0,5,1,2,1,3,FALSE,Superior,0,9723,no
1,57,F,N,2,20,no-more-than,6,5,blue,yellow,1,1,1,0,1,0,2,0,-1,TRUE,Inferior,0,4379,no
1,57,F,N,2,21,exactly,5,4,green,black,3,0,1,0,1,1,1,0,-1,FALSE,Inferior,0,3486,no
1,57,F,N,2,22,no-less-than,5,5,green,blue,6,0,3,1,3,0,2,1,0,TRUE,Equal,100,7726,no
1,57,F,N,2,23,exactly,6,5,green,blue,4,0,6,1,4,0,4,0,-1,FALSE,Inferior,99.73890339,3698,no
1,57,F,N,2,24,no-more-than,4,6,blue,yellow,2,1,2,1,2,1,2,0,2,FALSE,Superior,0,3883,no
1,57,F,N,2,25,less-than,5,3,red,blue,1,0,4,1,2,0,6,0,-2,TRUE,Inferior,100,3599,no
1,57,F,N,2,26,less-than,6,7,green,red,3,0,3,1,4,1,2,0,1,FALSE,Superior,0,6846,no
1,57,F,N,2,27,more-than,5,6,red,black,2,1,4,0,4,0,4,1,1,TRUE,Superior,100,3805,no
1,57,F,N,2,28,exactly,5,5,blue,red,1,0,5,0,2,0,5,1,0,TRUE,Equal,100,3330,yes
1,57,F,N,2,29,less-than,5,5,green,blue,4,1,6,0,6,0,1,1,0,FALSE,Equal,0.261096606,3856,no
1,57,F,N,2,30,no-less-than,4,5,red,green,1,1,1,1,1,0,3,1,1,TRUE,Superior,0,4157,no
1,57,F,N,2,31,no-less-than,6,9,red,black,5,1,2,0,2,0,4,1,3,TRUE,Superior,0.261096606,5646,no
1,57,F,N,2,32,less-than,5,7,green,blue,2,1,2,1,1,0,3,1,2,FALSE,Superior,0,5528,no
1,57,F,N,2,33,exactly,6,8,blue,black,2,0,3,1,3,0,5,1,2,?,Superior,0,3306,no
1,57,F,N,2,34,exactly,6,6,green,black,3,0,1,1,5,1,3,0,0,TRUE,Equal,99.47780679,3375,no
1,57,F,N,2,35,exactly,6,6,red,green,5,1,6,0,1,1,1,0,0,TRUE,Equal,100,3678,no
1,57,F,N,2,36,exactly,5,7,red,black,5,0,3,0,2,1,5,1,2,?,Superior,0,3679,yes
1,57,F,N,2,37,no-more-than,5,3,green,black,3,0,5,0,5,1,4,0,-2,TRUE,Inferior,100,4000,no
1,57,F,N,2,38,exactly,5,5,blue,yellow,3,1,1,1,1,1,4,0,0,TRUE,Equal,100,3951,no
1,57,F,N,2,39,less-than,4,4,green,blue,3,1,1,0,4,0,1,1,0,FALSE,Equal,0,3920,no
1,57,F,N,2,40,exactly,4,4,blue,green,6,0,1,1,2,1,1,1,0,TRUE,Equal,100,4253,no
1,57,F,N,2,41,more-than,5,5,blue,red,2,1,1,1,2,1,5,0,0,FALSE,Equal,0,7770,no
1,57,F,N,2,42,no-less-than,4,4,red,green,2,1,3,0,2,1,3,0,0,TRUE,Equal,100,8751,no
1,57,F,N,2,43,exactly,6,9,red,yellow,5,1,1,0,2,0,4,1,3,?,Superior,0,4149,no
1,57,F,N,2,44,no-less-than,6,4,red,blue,1,0,4,0,3,0,1,1,-2,FALSE,Inferior,0,5254,no
1,57,F,N,2,45,no-less-than,4,2,green,black,2,0,2,0,5,1,1,0,-2,FALSE,Inferior,0,4602,no
1,57,F,N,2,46,more-than,5,8,red,yellow,1,0,6,1,4,0,2,1,3,TRUE,Superior,100,3412,no
1,57,F,N,2,47,more-than,5,2,blue,green,1,0,2,0,2,0,1,1,-3,FALSE,Inferior,0,4073,no
1,57,F,N,2,48,no-more-than,4,3,blue,yellow,3,0,1,0,5,0,4,1,-1,TRUE,Inferior,100,3569,no
1,57,F,N,2,49,exactly,4,5,red,black,2,1,1,0,1,1,2,1,1,?,Superior,0,4320,no
1,57,F,N,2,50,more-than,4,3,green,yellow,3,0,1,0,5,0,4,1,-1,FALSE,Inferior,0,4224,no
1,57,F,N,2,51,no-less-than,5,6,green,yellow,2,0,4,0,4,1,2,1,1,TRUE,Superior,0,5288,no
1,57,F,N,2,52,exactly,4,6,blue,yellow,5,0,4,0,2,1,4,1,2,?,Superior,0,5168,yes
1,57,F,N,2,53,no-less-than,4,6,green,blue,1,1,3,1,4,0,2,1,2,TRUE,Superior,0,4286,no
1,57,F,N,2,54,exactly,6,4,green,black,3,1,4,0,5,0,6,0,-2,FALSE,Inferior,0,3958,no
1,57,F,N,2,55,more-than,6,4,blue,black,6,0,3,0,1,1,4,0,-2,FALSE,Inferior,0,3025,no
1,57,F,N,2,56,no-more-than,4,4,green,black,1,0,1,1,3,1,5,0,0,TRUE,Equal,100,6682,no
1,57,F,N,2,57,exactly,6,6,blue,black,6,0,3,0,6,1,1,0,0,TRUE,Equal,100,3689,yes
1,57,F,N,2,58,less-than,4,2,blue,yellow,2,0,6,1,4,0,4,0,-2,TRUE,Inferior,0,3152,no
1,57,F,N,2,59,exactly,5,8,blue,red,3,1,1,0,1,1,4,1,3,?,Superior,0,4220,no
1,57,F,N,2,60,less-than,6,3,blue,yellow,4,0,6,0,4,0,3,1,-3,TRUE,Inferior,99.73890339,3123,no
1,57,F,N,2,61,exactly,5,8,green,yellow,5,1,3,1,6,0,5,0,3,?,Superior,0,2432,yes
1,57,F,N,2,62,less-than,5,4,red,black,4,0,5,0,3,1,1,0,-1,TRUE,Inferior,100,4131,no
1,57,F,N,2,63,no-more-than,5,8,green,blue,4,1,4,1,4,0,4,0,3,FALSE,Superior,0.261096606,3602,no
1,57,F,N,2,64,no-more-than,6,4,green,yellow,5,1,3,0,2,0,6,0,-2,TRUE,Inferior,0,4895,no
1,57,F,N,2,65,no-less-than,6,8,green,blue,4,1,3,0,2,1,2,1,2,TRUE,Superior,0,11953,no
1,57,F,N,2,66,no-more-than,6,6,green,yellow,3,1,3,0,3,1,5,0,0,TRUE,Equal,0,4121,no
1,57,F,N,2,67,more-than,6,3,green,black,2,0,5,1,1,0,6,0,-3,FALSE,Inferior,0,4200,no
1,57,F,N,2,68,no-less-than,4,7,red,black,2,0,2,1,2,1,3,1,3,TRUE,Superior,0,4475,no
1,57,F,N,2,69,exactly,4,7,green,yellow,3,1,5,0,2,0,4,1,3,?,Superior,0,3649,yes
1,57,F,N,2,70,exactly,5,6,blue,black,4,0,5,0,1,1,5,1,1,?,Superior,0,3681,yes
1,57,F,N,2,71,exactly,5,2,green,blue,5,0,1,0,4,0,4,1,-3,FALSE,Inferior,0,3258,no
1,57,F,N,2,72,less-than,5,6,red,yellow,4,0,1,1,2,1,3,1,1,FALSE,Superior,0,3870,no
1,57,F,N,2,73,exactly,4,7,red,black,3,1,2,1,2,1,1,0,3,?,Superior,0.522193211,3860,no
1,57,F,N,2,74,no-less-than,5,8,green,red,6,1,2,1,2,0,5,0,3,TRUE,Superior,0,4312,no
1,57,F,N,2,75,exactly,4,6,red,yellow,1,1,3,0,3,1,2,1,2,?,Superior,0,3159,no
1,57,F,N,2,76,exactly,4,1,blue,black,3,1,4,0,4,0,3,0,-3,FALSE,Inferior,0,5666,no
1,57,F,N,2,77,no-less-than,5,3,red,black,5,0,4,1,5,0,6,0,-2,FALSE,Inferior,100,7826,no
1,57,F,N,2,78,less-than,6,8,green,black,3,1,3,0,4,1,1,1,2,FALSE,Superior,0,3971,no
1,57,F,N,2,79,more-than,4,1,green,yellow,1,0,4,1,2,0,6,0,-3,FALSE,Inferior,0,2983,no
1,57,F,N,2,80,less-than,4,5,red,yellow,1,0,3,1,1,1,1,1,1,FALSE,Superior,0,4356,no
1,57,F,N,2,81,no-more-than,4,7,blue,black,3,1,1,1,3,1,6,0,3,FALSE,Superior,100,4540,no
1,57,F,N,2,82,less-than,4,7,red,yellow,2,1,2,1,3,1,3,0,3,FALSE,Superior,0.261096606,4038,no
1,57,F,N,2,83,more-than,5,7,green,yellow,2,1,2,1,3,1,4,0,2,TRUE,Superior,100,5831,no
1,57,F,N,2,84,exactly,5,3,blue,black,2,0,5,1,6,0,6,0,-2,FALSE,Inferior,100,3974,no
1,57,F,N,2,85,no-less-than,5,7,red,green,1,1,6,0,3,0,6,1,2,TRUE,Superior,0.522193211,3663,no
1,57,F,N,2,86,no-more-than,6,3,blue,yellow,4,0,1,0,5,0,3,1,-3,TRUE,Inferior,0,4074,no
1,57,F,N,2,87,no-more-than,4,1,green,blue,4,1,2,0,6,0,5,0,-3,TRUE,Inferior,100,5294,no
1,57,F,N,2,88,exactly,5,5,red,black,1,1,1,1,2,0,3,1,0,TRUE,Equal,100,4495,no
1,57,F,N,2,89,no-more-than,5,7,green,black,2,1,2,1,3,1,6,0,2,FALSE,Superior,100,5265,no
1,57,F,N,2,90,no-less-than,4,3,blue,black,5,1,6,0,5,0,2,0,-1,FALSE,Inferior,0,5436,no
1,57,F,N,2,91,no-less-than,5,2,blue,black,2,0,1,0,5,1,3,0,-3,FALSE,Inferior,0,7510,no
1,57,F,N,2,92,exactly,4,5,red,green,4,0,6,0,1,1,4,1,1,?,Superior,0.261096606,3777,yes
1,57,F,N,2,93,less-than,6,4,green,yellow,2,0,5,1,6,0,5,0,-2,TRUE,Inferior,100,5470,no
1,57,F,N,2,94,exactly,6,7,blue,black,6,1,1,1,5,0,6,0,1,?,Superior,0.261096606,3771,yes
1,57,F,N,2,95,exactly,4,3,blue,red,6,0,3,1,5,0,1,0,-1,FALSE,Inferior,0,4717,no
1,57,F,N,2,96,more-than,6,8,green,black,4,1,1,0,6,0,4,1,2,TRUE,Superior,100,4019,no
1,57,F,N,2,97,no-more-than,6,7,green,blue,2,1,1,0,5,1,2,0,1,FALSE,Superior,100,4889,no
1,57,F,N,2,98,exactly,4,4,green,red,1,1,5,0,3,0,3,1,0,TRUE,Equal,100,4483,no
1,57,F,N,2,99,more-than,6,7,red,black,3,0,1,1,2,1,4,1,1,TRUE,Superior,100,3761,no
1,57,F,N,2,100,no-more-than,5,6,red,green,1,1,2,0,2,1,3,1,1,FALSE,Superior,100,4364,no
1,57,F,N,2,101,less-than,5,2,blue,red,4,1,5,0,2,0,4,0,-3,TRUE,Inferior,100,3620,no
1,57,F,N,2,102,no-more-than,5,5,red,green,1,1,4,0,6,0,4,1,0,TRUE,Equal,0,3912,no
1,57,F,N,2,103,no-less-than,6,7,red,green,4,0,3,0,5,1,2,1,1,TRUE,Superior,0,6588,no
1,57,F,N,2,104,exactly,5,7,blue,red,2,0,3,0,1,1,6,1,2,?,Superior,0,4216,no
1,57,F,N,2,105,exactly,6,7,red,yellow,2,1,5,1,5,0,5,0,1,?,Superior,0,3984,no
1,57,F,N,2,106,exactly,4,4,red,blue,5,0,2,0,4,1,6,0,0,TRUE,Equal,100,3281,yes
1,57,F,N,2,107,no-less-than,6,3,blue,black,1,0,5,0,6,1,1,0,-3,FALSE,Inferior,0,6203,no
1,57,F,N,2,108,less-than,6,9,blue,green,1,0,3,1,4,1,2,1,3,FALSE,Superior,0,4483,no
1,57,F,N,2,109,more-than,4,4,red,blue,2,1,2,1,4,0,5,0,0,FALSE,Equal,100,3173,no
1,57,F,N,2,110,no-less-than,6,6,blue,yellow,3,1,6,0,3,1,6,0,0,TRUE,Equal,100,13073,no
1,57,F,N,2,111,exactly,6,3,green,black,5,0,3,0,5,1,5,0,-3,FALSE,Inferior,0,3675,no
1,57,F,N,2,112,exactly,5,6,red,black,3,1,5,0,5,0,3,1,1,?,Superior,0,4194,no
1,57,F,N,2,113,less-than,4,3,green,blue,5,0,2,1,1,0,2,0,-1,TRUE,Inferior,100,5591,no
1,57,F,N,2,114,less-than,4,6,green,yellow,3,1,1,1,2,1,4,0,2,FALSE,Superior,0,4014,no
1,57,F,N,2,115,no-more-than,6,8,blue,yellow,5,1,2,0,2,0,3,1,2,FALSE,Superior,0.261096606,6346,no
1,57,F,N,2,116,more-than,4,6,green,black,2,1,2,1,2,0,2,1,2,TRUE,Superior,100,4575,no
1,57,F,N,2,117,no-less-than,6,5,green,black,5,0,4,1,3,0,3,0,-1,FALSE,Inferior,0,10646,no
1,57,F,N,2,118,less-than,6,6,blue,black,2,1,6,0,4,0,4,1,0,FALSE,Equal,100,5394,no
1,57,F,N,2,119,more-than,6,9,green,red,5,1,4,1,2,0,4,0,3,TRUE,Superior,100,4162,no
1,57,F,N,2,120,more-than,5,4,blue,yellow,1,0,1,0,4,1,1,0,-1,FALSE,Inferior,0.261096606,3948,no
1,57,F,N,3,1,only1,5,8,red,black,4,1,4,1,6,0,4,0,3,FALSE,Superior,0,5292,no
1,57,F,N,3,2,only1,6,6,red,yellow,2,1,2,1,4,0,2,1,0,TRUE,Equal,99.73890339,3140,no
1,57,F,N,3,3,only2,5,8,green,red,6,1,2,0,2,1,3,0,3,FALSE,Superior,0,3680,no
1,57,F,N,3,4,only1,4,4,red,black,1,1,1,1,1,0,2,1,0,TRUE,Equal,0,2847,no
1,57,F,N,3,5,only2,6,6,red,blue,3,1,3,1,5,0,1,0,0,TRUE,Equal,100,2853,no
1,57,F,N,3,6,only2,5,7,blue,black,2,1,3,1,5,0,2,1,2,FALSE,Superior,0,3062,no
1,57,F,N,3,7,only1,6,6,red,yellow,2,0,3,1,4,0,3,1,0,TRUE,Equal,100,2904,no
1,57,F,N,3,8,only1,5,5,blue,yellow,2,1,3,0,1,1,2,1,0,TRUE,Equal,100,2735,no
1,57,F,N,3,9,only2,5,6,red,green,1,1,2,1,2,0,3,1,1,FALSE,Superior,0,3052,no
1,57,F,N,3,10,only1,5,6,red,green,4,1,1,0,2,1,6,0,1,FALSE,Superior,0,3169,no
1,57,F,N,3,11,only2,4,4,blue,red,1,1,4,0,1,1,2,1,0,TRUE,Equal,100,3165,no
1,57,F,N,3,12,only2,5,5,green,red,2,0,2,1,2,1,1,1,0,TRUE,Equal,100,2903,no
1,57,F,N,3,13,only1,6,8,green,red,2,1,2,1,4,1,2,0,2,FALSE,Superior,0,2321,no
1,57,F,N,3,14,only2,4,4,green,blue,3,0,2,1,2,1,6,0,0,TRUE,Equal,100,3112,no
1,57,F,N,3,15,only1,5,5,blue,red,4,1,1,1,4,0,4,0,0,TRUE,Equal,100,2032,no
1,57,F,N,3,16,only2,4,6,red,green,2,1,2,1,2,1,5,0,2,FALSE,Superior,0,2798,no
1,57,F,N,3,17,only1,4,7,blue,yellow,1,1,2,0,3,1,3,1,3,FALSE,Superior,0,2339,no
1,57,F,N,3,18,only2,4,4,green,black,2,1,1,0,6,0,2,1,0,TRUE,Equal,100,2373,no
1,57,F,N,3,19,only2,6,8,blue,yellow,4,1,2,1,2,1,4,0,2,FALSE,Superior,0,2862,no
1,57,F,N,3,20,only1,6,6,green,black,6,0,1,1,4,0,5,1,0,TRUE,Equal,100,3188,no
1,57,F,N,3,21,only2,6,6,green,black,5,1,5,0,1,1,6,0,0,TRUE,Equal,100,2467,no
1,57,F,N,3,22,only2,5,5,green,red,2,1,3,0,1,1,2,1,0,TRUE,Equal,100,2945,no
1,57,F,N,3,23,only2,6,6,green,yellow,1,0,2,1,2,1,2,1,0,TRUE,Equal,100,2580,no
1,57,F,N,3,24,only1,5,5,red,blue,3,1,1,1,1,1,2,0,0,TRUE,Equal,100,2182,no
1,57,F,N,3,25,only1,4,4,green,yellow,1,1,2,1,1,1,6,0,0,TRUE,Equal,100,2557,no
1,57,F,N,3,26,only2,6,7,green,blue,3,1,4,0,1,1,3,1,1,FALSE,Superior,0,2401,no
1,57,F,N,3,27,only1,4,6,blue,green,3,1,4,0,1,1,2,1,2,FALSE,Superior,0,2139,no
1,57,F,N,3,28,only1,4,4,red,yellow,5,0,6,0,1,1,3,1,0,TRUE,Equal,100,2522,no
1,57,F,N,3,29,only1,6,7,green,red,4,0,3,1,4,1,3,0,1,FALSE,Superior,0,2382,no
1,57,F,N,3,30,only2,5,5,green,blue,3,1,1,1,1,0,1,1,0,TRUE,Equal,100,3111,no
1,57,F,N,3,31,only2,4,7,blue,green,2,1,2,0,2,1,3,1,3,FALSE,Superior,0,2352,no
1,57,F,N,3,32,only1,4,5,green,black,5,0,3,1,2,1,2,0,1,FALSE,Superior,0,3716,no
1,57,F,N,3,33,only1,6,9,red,yellow,5,1,3,0,3,0,4,1,3,FALSE,Superior,1.044386423,1767,no
1,57,F,N,3,34,only2,6,9,red,black,3,1,4,1,5,0,2,1,3,FALSE,Superior,0.783289817,3625,no
1,57,F,N,3,35,only2,4,5,blue,red,1,1,4,0,1,1,3,1,1,FALSE,Superior,0,4111,no
1,57,F,N,3,36,only1,5,7,green,yellow,2,1,1,1,5,0,4,1,2,FALSE,Superior,0,2761,no
2,41,F,N,1,1,exactly,5,5,green,black,5,1,1,0,6,0,2,0,0,TRUE,Equal,100,16547,yes
2,41,F,N,1,2,no-more-than,6,7,green,yellow,1,1,3,1,6,0,3,1,1,FALSE,Superior,1.044386423,7458,no
2,41,F,N,1,3,more-than,6,7,red,yellow,2,0,1,1,2,1,4,1,1,TRUE,Superior,0,4826,no
2,41,F,N,1,4,exactly,5,7,green,blue,5,0,4,0,5,1,2,1,2,?,Superior,0,6722,yes
2,41,F,N,1,5,less-than,5,4,blue,green,4,0,5,0,1,0,6,1,-1,TRUE,Inferior,0,6108,no
2,41,F,N,1,6,no-less-than,6,4,green,yellow,2,0,1,0,3,1,4,0,-2,FALSE,Inferior,98.69451697,11438,no
2,41,F,N,1,7,more-than,5,2,blue,yellow,2,0,4,0,4,0,2,1,-3,FALSE,Inferior,0,6289,no
2,41,F,N,1,8,no-less-than,4,2,red,green,6,1,6,0,1,0,1,0,-2,FALSE,Inferior,100,3115,no
2,41,F,N,1,9,less-than,5,3,blue,green,6,0,4,0,2,1,5,0,-2,TRUE,Inferior,0.261096606,4067,no
2,41,F,N,1,10,less-than,5,5,red,blue,2,1,1,1,2,1,5,0,0,FALSE,Equal,0.522193211,7242,no
2,41,F,N,1,11,no-more-than,6,8,red,green,3,1,2,0,3,0,5,1,2,FALSE,Superior,5.483028721,13882,no
2,41,F,N,1,12,more-than,6,4,green,red,3,0,6,1,6,0,5,0,-2,FALSE,Inferior,3.133159269,8483,no
2,41,F,N,1,13,no-more-than,4,1,green,red,2,0,4,1,3,0,2,0,-3,TRUE,Inferior,100,4061,no
2,41,F,N,1,14,more-than,5,5,blue,red,1,1,2,1,2,1,4,0,0,FALSE,Equal,0.261096606,4769,no
2,41,F,N,1,15,no-more-than,6,3,green,red,4,1,1,0,1,0,6,0,-3,TRUE,Inferior,0,12525,no
2,41,F,N,1,16,exactly,4,6,red,yellow,3,0,2,1,4,1,6,0,2,?,Superior,1.305483029,6802,yes
2,41,F,N,1,17,less-than,4,7,red,black,3,1,1,1,3,1,6,0,3,FALSE,Superior,0,4841,no
2,41,F,N,1,18,no-less-than,4,5,red,green,4,0,1,1,1,1,3,1,1,TRUE,Superior,1.044386423,8084,no
2,41,F,N,1,19,exactly,6,8,green,black,3,0,2,1,4,1,2,1,2,?,Superior,0,9275,no
2,41,F,N,1,20,no-more-than,6,4,blue,black,2,1,1,0,5,0,4,0,-2,TRUE,Inferior,12.53263708,2132,no
2,41,F,N,1,21,more-than,5,8,red,blue,1,0,2,1,6,1,5,0,3,TRUE,Superior,92.68929504,3498,no
2,41,F,N,1,22,less-than,6,6,blue,black,4,1,2,1,3,0,2,0,0,FALSE,Equal,0,13532,no
2,41,F,N,1,23,exactly,5,6,red,blue,4,1,1,1,1,1,1,0,1,?,Superior,0.783289817,15619,no
2,41,F,N,1,24,more-than,4,4,blue,green,1,0,3,1,1,1,1,0,0,FALSE,Equal,1.044386423,5283,no
2,41,F,N,1,25,no-more-than,4,4,red,black,1,0,2,1,2,0,2,1,0,TRUE,Equal,51.17493473,5657,no
2,41,F,N,1,26,no-more-than,6,6,blue,yellow,3,1,2,0,4,0,3,1,0,TRUE,Equal,0,4701,no
2,41,F,N,1,27,exactly,4,3,blue,red,2,0,5,1,3,0,2,0,-1,FALSE,Inferior,0.261096606,4188,no
2,41,F,N,1,28,no-less-than,5,3,blue,yellow,6,0,1,0,3,1,3,0,-2,FALSE,Inferior,0.261096606,4770,no
2,41,F,N,1,29,no-less-than,5,5,blue,yellow,2,1,4,0,5,0,3,1,0,TRUE,Equal,43.08093995,7715,no
2,41,F,N,1,30,less-than,4,1,red,green,3,0,6,0,2,1,2,0,-3,TRUE,Inferior,100,7249,no
2,41,F,N,1,31,more-than,4,7,red,black,4,0,2,1,3,1,2,1,3,TRUE,Superior,100,3821,no
2,41,F,N,1,32,more-than,6,8,blue,red,4,0,3,1,2,1,3,1,2,TRUE,Superior,100,4354,no
2,41,F,N,1,33,less-than,5,7,blue,black,3,1,4,1,1,0,2,0,2,FALSE,Superior,4.960835509,6315,no
2,41,F,N,1,34,more-than,5,3,green,blue,1,1,6,0,1,0,1,0,-2,FALSE,Inferior,0.783289817,6164,no
2,41,F,N,1,35,exactly,5,7,green,black,3,0,6,1,1,0,1,1,2,?,Superior,0.522193211,7832,no
2,41,F,N,1,36,no-less-than,5,8,green,blue,3,1,2,0,3,1,2,1,3,TRUE,Superior,47.25848564,5229,no
2,41,F,N,1,37,exactly,6,9,red,yellow,6,0,6,1,3,1,5,0,3,?,Superior,1.566579634,2972,yes
2,41,F,N,1,38,more-than,5,6,red,black,4,0,2,1,4,1,5,0,1,TRUE,Superior,90.8616188,6290,no
2,41,F,N,1,39,no-more-than,5,8,red,yellow,2,1,6,0,1,0,6,1,3,FALSE,Superior,100,5906,no
2,41,F,N,1,40,no-less-than,6,3,blue,yellow,6,1,6,0,1,0,6,0,-3,FALSE,Inferior,12.53263708,2309,no
2,41,F,N,1,41,exactly,5,6,green,black,2,0,2,0,5,1,1,1,1,?,Superior,11.22715405,2706,yes
2,41,F,N,1,42,exactly,5,8,blue,black,2,0,2,0,5,1,3,1,3,?,Superior,0,5756,yes
2,41,F,N,1,43,less-than,6,9,green,yellow,5,1,5,0,2,1,2,1,3,FALSE,Superior,93.21148825,1786,no
2,41,F,N,1,44,exactly,6,3,red,blue,2,1,5,0,2,0,4,0,-3,FALSE,Inferior,4.438642298,4389,no
2,41,F,N,1,45,less-than,4,6,green,black,2,1,3,1,1,1,3,0,2,FALSE,Superior,100,10211,no
2,41,F,N,1,46,exactly,4,2,blue,green,5,0,1,1,4,0,3,0,-2,FALSE,Inferior,16.71018277,4641,no
2,41,F,N,1,47,less-than,5,8,green,red,1,1,3,1,4,1,3,0,3,FALSE,Superior,5.221932115,8523,no
2,41,F,N,1,48,more-than,4,2,blue,black,2,1,6,0,1,0,5,0,-2,FALSE,Inferior,50.91383812,4605,no
2,41,F,N,1,49,less-than,6,4,blue,red,6,0,3,0,6,1,3,0,-2,TRUE,Inferior,17.75456919,5320,no
2,41,F,N,1,50,less-than,5,2,green,red,1,0,6,0,3,1,1,0,-3,TRUE,Inferior,17.23237598,5531,no
2,41,F,N,1,51,more-than,6,9,blue,red,2,1,5,1,5,0,2,1,3,TRUE,Superior,8.355091384,1738,no
2,41,F,N,1,52,no-less-than,5,4,red,black,5,1,5,0,6,0,1,0,-1,FALSE,Inferior,6.266318538,3628,no
2,41,F,N,1,53,no-more-than,4,5,green,yellow,3,1,5,0,2,1,1,0,1,FALSE,Superior,40.20887728,1594,no
2,41,F,N,1,54,exactly,6,9,red,black,5,0,5,1,4,1,3,0,3,?,Superior,0.261096606,5685,no
2,41,F,N,1,55,exactly,5,5,blue,black,1,1,6,0,1,1,3,1,0,TRUE,Equal,100,3985,no
2,41,F,N,1,56,exactly,4,1,blue,yellow,1,0,3,0,1,1,3,0,-3,FALSE,Inferior,0,6531,no
2,41,F,N,1,57,less-than,6,7,green,blue,4,1,3,0,3,1,5,0,1,FALSE,Superior,94.25587467,11522,no
2,41,F,N,1,58,exactly,4,4,blue,red,4,1,4,0,3,0,3,0,0,TRUE,Equal,100,7146,yes
2,41,F,N,1,59,no-less-than,6,7,red,blue,2,1,5,0,1,1,4,1,1,TRUE,Superior,3.916449086,3797,no
2,41,F,N,1,60,exactly,4,4,blue,black,1,1,3,0,2,1,1,1,0,TRUE,Equal,97.91122715,3961,no
2,41,F,N,1,61,more-than,4,3,red,yellow,4,0,5,1,2,0,5,0,-1,FALSE,Inferior,3.133159269,1861,no
2,41,F,N,1,62,no-less-than,6,9,blue,yellow,5,1,2,1,2,1,1,0,3,TRUE,Superior,50.1305483,2689,no
2,41,F,N,1,63,less-than,5,6,green,blue,3,1,5,0,1,1,2,1,1,FALSE,Superior,27.4151436,4009,no
2,41,F,N,1,64,no-less-than,6,8,blue,red,5,0,3,1,5,1,6,0,2,TRUE,Superior,43.08093995,4646,no
2,41,F,N,1,65,exactly,4,5,green,yellow,1,0,1,1,4,1,3,0,1,?,Superior,79.63446475,3058,yes
2,41,F,N,1,66,more-than,6,5,blue,green,5,0,3,1,4,0,3,0,-1,FALSE,Inferior,39.68668407,3827,no
2,41,F,N,1,67,no-less-than,4,4,blue,red,4,0,1,0,2,1,2,1,0,TRUE,Equal,8.093994778,5264,no
2,41,F,N,1,68,exactly,5,3,green,yellow,1,1,3,0,5,0,4,0,-2,FALSE,Inferior,0,4906,no
2,41,F,N,1,69,no-less-than,5,7,blue,black,6,1,1,0,1,0,1,1,2,TRUE,Superior,8.093994778,5535,no
2,41,F,N,1,70,more-than,4,5,red,blue,1,1,5,0,2,1,2,1,1,TRUE,Superior,100,4633,no
2,41,F,N,1,71,less-than,4,3,red,yellow,2,0,4,1,3,0,4,0,-1,TRUE,Inferior,59.0078329,4748,no
2,41,F,N,1,72,no-more-than,5,5,red,yellow,4,0,1,1,1,1,3,1,0,TRUE,Equal,100,6274,no
2,41,F,N,1,73,exactly,6,4,blue,green,1,1,5,0,1,0,2,0,-2,FALSE,Inferior,17.23237598,1478,no
2,41,F,N,1,74,no-less-than,6,5,green,black,4,0,6,0,4,0,1,1,-1,FALSE,Inferior,89.55613577,3312,no
2,41,F,N,1,75,less-than,6,5,blue,black,6,0,3,0,3,1,5,0,-1,TRUE,Inferior,13.05483029,2534,no
2,41,F,N,1,76,no-less-than,6,6,green,yellow,1,1,6,0,4,1,1,1,0,TRUE,Equal,90.60052219,6026,no
2,41,F,N,1,77,exactly,6,7,green,black,1,0,6,0,5,1,2,1,1,?,Superior,91.1227154,4881,no
2,41,F,N,1,78,exactly,5,4,green,blue,2,0,2,0,2,1,3,0,-1,FALSE,Inferior,3.394255875,1501,no
2,41,F,N,1,79,no-less-than,5,6,green,blue,1,1,2,1,3,1,2,0,1,TRUE,Superior,30.02610966,3867,no
2,41,F,N,1,80,no-more-than,5,2,green,black,4,1,4,0,2,0,4,0,-3,TRUE,Inferior,10.70496084,14762,no
2,41,F,N,1,81,exactly,6,6,blue,black,6,1,3,0,2,0,6,0,0,TRUE,Equal,100,6044,yes
2,41,F,N,1,82,exactly,4,7,red,black,2,0,4,1,2,0,3,1,3,?,Superior,19.84334204,4426,yes
2,41,F,N,1,83,no-less-than,4,3,blue,red,2,0,1,0,5,1,5,0,-1,FALSE,Inferior,10.70496084,6795,no
2,41,F,N,1,84,no-less-than,4,6,green,black,3,0,2,1,2,1,2,1,2,TRUE,Superior,14.36031332,6594,no
2,41,F,N,1,85,exactly,6,7,red,yellow,4,0,1,1,3,0,6,1,1,?,Superior,0,7245,yes
2,41,F,N,1,86,no-more-than,6,9,red,yellow,4,1,1,0,2,1,3,1,3,FALSE,Superior,52.74151436,5676,no
2,41,F,N,1,87,no-more-than,6,5,blue,black,4,0,3,1,4,0,3,0,-1,TRUE,Inferior,1.82767624,10899,no
2,41,F,N,1,88,less-than,6,3,green,red,4,1,6,0,6,0,6,0,-3,TRUE,Inferior,100,7681,no
2,41,F,N,1,89,exactly,5,2,green,red,4,1,3,0,2,0,6,0,-3,FALSE,Inferior,0,5636,no
2,41,F,N,1,90,no-less-than,5,2,red,blue,3,0,4,1,1,0,4,0,-3,FALSE,Inferior,0,5690,no
2,41,F,N,1,91,exactly,6,5,green,red,1,1,4,0,2,0,6,0,-1,FALSE,Inferior,0,13516,no
2,41,F,N,1,92,less-than,4,5,green,red,3,1,2,1,1,0,1,0,1,FALSE,Superior,2.088772846,5331,no
2,41,F,N,1,93,exactly,6,6,blue,red,2,0,1,1,5,1,4,0,0,TRUE,Equal,100,4616,no
2,41,F,N,1,94,no-more-than,4,7,red,green,3,1,6,0,1,1,3,1,3,FALSE,Superior,12.01044386,2219,no
2,41,F,N,1,95,more-than,4,6,red,green,3,1,4,0,1,0,3,1,2,TRUE,Superior,49.34725849,5454,no
2,41,F,N,1,96,exactly,5,8,green,yellow,4,1,2,0,4,1,5,0,3,?,Superior,0.783289817,3560,no
2,41,F,N,1,97,no-more-than,4,2,green,blue,2,0,5,1,2,0,5,0,-2,TRUE,Inferior,58.22454308,5953,no
2,41,F,N,1,98,less-than,4,2,green,blue,6,0,2,1,2,0,5,0,-2,TRUE,Inferior,100,1798,no
2,41,F,N,1,99,no-more-than,5,7,green,black,1,0,4,1,1,0,3,1,2,FALSE,Superior,13.31592689,7547,no
2,41,F,N,1,100,exactly,4,4,green,blue,2,0,3,0,3,1,1,1,0,TRUE,Equal,100,5539,no
2,41,F,N,1,101,less-than,6,8,blue,green,4,1,5,0,4,1,5,0,2,FALSE,Superior,0,6462,no
2,41,F,N,1,102,no-more-than,5,3,red,blue,6,1,1,0,6,0,6,0,-2,TRUE,Inferior,100,1674,no
2,41,F,N,1,103,exactly,4,6,green,blue,3,0,3,1,3,1,6,0,2,?,Superior,0,3521,no
2,41,F,N,1,104,exactly,5,5,green,yellow,2,1,4,0,3,1,2,0,0,TRUE,Equal,73.10704961,4124,no
2,41,F,N,1,105,exactly,6,8,red,green,5,0,6,1,1,0,2,1,2,?,Superior,84.85639687,4739,yes
2,41,F,N,1,106,more-than,5,7,red,green,1,0,1,0,6,1,1,1,2,TRUE,Superior,9.399477807,1499,no
2,41,F,N,1,107,no-less-than,4,7,blue,yellow,1,1,3,1,3,1,4,0,3,TRUE,Superior,1.044386423,6471,no
2,41,F,N,1,108,less-than,4,4,red,blue,5,0,4,0,2,1,2,1,0,FALSE,Equal,1.566579634,2932,no
2,41,F,N,1,109,exactly,6,6,green,yellow,1,1,4,1,2,0,1,1,0,TRUE,Equal,100,1933,no
2,41,F,N,1,110,no-more-than,5,6,blue,black,1,1,1,1,4,1,2,0,1,FALSE,Superior,82.76762402,9170,no
2,41,F,N,1,111,more-than,6,6,green,red,2,1,2,1,3,0,2,1,0,FALSE,Equal,0,8225,no
2,41,F,N,1,112,more-than,6,3,green,blue,3,0,6,0,6,1,4,0,-3,FALSE,Inferior,95.03916449,3309,no
2,41,F,N,1,113,no-more-than,4,3,red,blue,3,0,6,1,2,0,3,0,-1,TRUE,Inferior,50.39164491,14304,no
2,41,F,N,1,114,more-than,4,1,green,yellow,3,0,4,1,3,0,1,0,-3,FALSE,Inferior,0.261096606,8990,no
2,41,F,N,1,115,exactly,4,7,red,black,3,1,1,1,4,0,3,1,3,?,Superior,0,6179,no
2,41,F,N,1,116,no-more-than,4,6,green,black,2,1,2,1,4,0,2,1,2,FALSE,Superior,2.610966057,5428,no
2,41,F,N,1,117,no-more-than,5,4,green,red,3,1,1,0,2,0,4,0,-1,TRUE,Inferior,7.310704961,2977,no
2,41,F,N,1,118,more-than,5,4,red,yellow,2,0,6,0,6,1,5,0,-1,FALSE,Inferior,6.527415144,11626,no
2,41,F,N,1,119,no-less-than,4,1,red,green,1,0,4,0,3,0,3,1,-3,FALSE,Inferior,51.95822454,4725,no
2,41,F,N,1,120,exactly,4,5,red,yellow,6,0,4,0,2,1,3,1,1,?,Superior,1.044386423,2410,no
2,41,F,N,2,1,exactly,4,7,red,yellow,3,1,2,0,6,0,4,1,3,?,Superior,1.044386423,8925,yes
2,41,F,N,2,2,exactly,5,4,green,yellow,6,0,6,0,1,1,3,0,-1,FALSE,Inferior,0,7626,no
2,41,F,N,2,3,more-than,4,6,green,black,3,1,4,0,5,0,3,1,2,TRUE,Superior,100,4101,no
2,41,F,N,2,4,exactly,4,4,blue,yellow,1,0,3,0,3,1,1,1,0,TRUE,Equal,100,7088,no
2,41,F,N,2,5,less-than,6,9,green,red,3,1,3,1,3,1,1,0,3,FALSE,Superior,1.044386423,6229,no
2,41,F,N,2,6,no-more-than,6,3,blue,yellow,3,0,3,0,3,0,1,1,-3,TRUE,Inferior,0,9828,no
2,41,F,N,2,7,no-more-than,6,6,red,green,2,0,4,0,2,1,4,1,0,TRUE,Equal,100,8849,no
2,41,F,N,2,8,no-more-than,5,4,red,green,5,0,4,0,6,0,3,1,-1,TRUE,Inferior,0,6755,no
2,41,F,N,2,9,less-than,6,6,red,black,2,1,3,0,4,1,5,0,0,FALSE,Equal,0,5965,no
2,41,F,N,2,10,less-than,5,4,red,black,6,1,5,0,3,0,2,0,-1,TRUE,Inferior,0,9466,no
2,41,F,N,2,11,more-than,6,8,green,yellow,1,1,4,0,4,1,3,1,2,TRUE,Superior,0,6228,no
2,41,F,N,2,12,no-less-than,4,7,green,yellow,1,1,3,1,3,1,5,0,3,TRUE,Superior,0,7072,no
2,41,F,N,2,13,more-than,6,4,green,red,6,0,2,0,5,1,4,0,-2,FALSE,Inferior,0,4438,no
2,41,F,N,2,14,less-than,4,4,red,yellow,1,0,1,0,2,1,2,1,0,FALSE,Equal,0,5201,no
2,41,F,N,2,15,exactly,5,5,red,blue,5,0,4,0,1,1,4,1,0,TRUE,Equal,100,9710,no
2,41,F,N,2,16,exactly,5,5,red,green,5,0,6,0,2,0,5,1,0,TRUE,Equal,100,3538,yes
2,41,F,N,2,17,no-more-than,6,4,blue,black,1,0,3,1,2,0,2,0,-2,TRUE,Inferior,0,7892,no
2,41,F,N,2,18,no-less-than,5,8,green,blue,3,1,2,0,2,1,3,1,3,TRUE,Superior,100,20145,no
2,41,F,N,2,19,less-than,6,3,red,black,5,0,4,0,2,1,1,0,-3,TRUE,Inferior,100,3155,no
2,41,F,N,2,20,no-less-than,6,7,green,black,2,1,4,1,1,1,2,0,1,TRUE,Superior,0,4693,no
2,41,F,N,2,21,more-than,5,2,red,green,3,0,3,0,1,1,6,0,-3,FALSE,Inferior,0,2930,no
2,41,F,N,2,22,exactly,4,5,green,red,3,1,2,1,2,0,5,0,1,?,Superior,100,2089,no
2,41,F,N,2,23,exactly,6,6,red,green,4,1,2,1,3,0,6,0,0,TRUE,Equal,19.84334204,2507,no
2,41,F,N,2,24,exactly,5,5,red,black,3,1,2,1,2,0,1,0,0,TRUE,Equal,78.85117493,3035,no
2,41,F,N,2,25,more-than,6,6,blue,green,2,1,2,1,1,0,2,1,0,FALSE,Equal,54.83028721,1219,no
2,41,F,N,2,26,exactly,6,7,blue,red,1,1,6,0,6,1,2,0,1,?,Superior,13.31592689,3037,yes
2,41,F,N,2,27,no-more-than,5,2,green,yellow,2,1,6,0,2,0,2,0,-3,TRUE,Inferior,92.42819843,1955,no
2,41,F,N,2,28,less-than,4,7,red,green,3,1,1,1,3,1,6,0,3,FALSE,Superior,46.99738903,1425,no
2,41,F,N,2,29,no-less-than,6,5,blue,red,2,0,6,0,4,0,1,1,-1,FALSE,Inferior,76.24020888,3091,no
2,41,F,N,2,30,no-less-than,4,2,blue,red,3,0,4,1,2,0,5,0,-2,FALSE,Inferior,0,3269,no
2,41,F,N,2,31,exactly,4,4,green,blue,6,0,6,0,3,1,1,1,0,TRUE,Equal,100,3234,no
2,41,F,N,2,32,no-less-than,6,9,red,green,3,1,3,1,6,0,3,1,3,TRUE,Superior,50.1305483,1258,no
2,41,F,N,2,33,no-more-than,4,7,blue,red,3,0,1,1,3,1,3,1,3,FALSE,Superior,26.89295039,1159,no
2,41,F,N,2,34,no-less-than,5,4,green,yellow,3,1,2,0,6,0,4,0,-1,FALSE,Inferior,87.20626632,3842,no
2,41,F,N,2,35,less-than,5,5,blue,yellow,3,0,1,1,3,1,1,1,0,FALSE,Equal,10.18276762,2440,no
2,41,F,N,2,36,exactly,5,6,red,green,4,0,2,1,1,1,3,1,1,?,Superior,70.49608355,3541,no
2,41,F,N,2,37,no-less-than,6,8,green,blue,2,1,6,0,4,1,2,1,2,TRUE,Superior,88.51174935,6597,no
2,41,F,N,2,38,less-than,4,5,blue,black,1,1,3,1,1,1,3,0,1,FALSE,Superior,0,3047,no
2,41,F,N,2,39,no-more-than,4,1,red,yellow,6,1,1,0,1,0,3,0,-3,TRUE,Inferior,0,1598,no
2,41,F,N,2,40,no-less-than,6,6,green,blue,1,1,5,0,5,0,5,1,0,TRUE,Equal,51.43603133,4739,no
2,41,F,N,2,41,more-than,4,4,blue,green,1,0,4,0,2,1,2,1,0,FALSE,Equal,0,4203,no
2,41,F,N,2,42,less-than,5,2,blue,black,3,0,5,0,4,0,1,1,-3,TRUE,Inferior,3.65535248,6521,no
2,41,F,N,2,43,no-more-than,4,5,red,black,5,0,3,1,2,1,5,0,1,FALSE,Superior,100,1425,no
2,41,F,N,2,44,less-than,4,2,green,blue,6,0,3,1,1,0,3,0,-2,TRUE,Inferior,44.38642298,2195,no
2,41,F,N,2,45,more-than,6,7,blue,green,1,1,3,0,3,1,3,1,1,TRUE,Superior,100,5948,no
2,41,F,N,2,46,no-more-than,6,7,green,yellow,5,1,6,0,2,0,2,1,1,FALSE,Superior,100,5766,no
2,41,F,N,2,47,exactly,6,8,red,yellow,5,0,2,1,3,0,6,1,2,?,Superior,0.522193211,9210,yes
2,41,F,N,2,48,exactly,4,6,blue,black,3,1,3,1,3,0,5,0,2,?,Superior,100,2425,no
2,41,F,N,2,49,more-than,5,8,blue,green,3,1,2,1,5,0,3,1,3,TRUE,Superior,100,9036,no
2,41,F,N,2,50,less-than,4,1,blue,green,4,0,6,0,6,1,1,0,-3,TRUE,Inferior,59.2689295,5509,no
2,41,F,N,2,51,no-less-than,5,3,blue,green,5,0,1,1,1,0,3,0,-2,FALSE,Inferior,0.522193211,2946,no
2,41,F,N,2,52,no-more-than,6,5,blue,black,3,0,4,0,3,1,4,0,-1,TRUE,Inferior,100,1435,no
2,41,F,N,2,53,less-than,5,7,red,black,5,0,4,1,2,0,3,1,2,FALSE,Superior,80.15665796,1880,no
2,41,F,N,2,54,exactly,5,3,green,black,5,0,6,0,6,0,2,1,-2,FALSE,Inferior,14.88250653,2860,no
2,41,F,N,2,55,exactly,4,4,green,yellow,4,0,4,1,2,0,4,0,0,TRUE,Equal,67.88511749,3883,yes
2,41,F,N,2,56,no-more-than,4,2,green,blue,1,0,5,0,4,0,2,1,-2,TRUE,Inferior,83.28981723,1494,no
2,41,F,N,2,57,exactly,6,5,green,red,2,1,3,0,2,0,3,0,-1,FALSE,Inferior,0,4152,no
2,41,F,N,2,58,more-than,6,3,blue,red,1,1,4,0,2,0,3,0,-3,FALSE,Inferior,98.17232376,1181,no
2,41,F,N,2,59,exactly,4,3,blue,green,4,1,2,0,6,0,1,0,-1,FALSE,Inferior,2.349869452,1569,no
2,41,F,N,2,60,exactly,5,7,green,red,2,1,2,1,1,0,3,1,2,?,Superior,42.81984334,8308,no
2,41,F,N,2,61,less-than,4,6,red,blue,1,1,2,1,3,1,1,0,2,FALSE,Superior,1.566579634,18169,no
2,41,F,N,2,62,more-than,4,5,green,black,3,0,1,1,1,1,3,1,1,TRUE,Superior,57.96344648,3229,no
2,41,F,N,2,63,more-than,5,5,red,blue,2,1,2,1,2,0,1,1,0,FALSE,Equal,31.07049608,8265,no
2,41,F,N,2,64,exactly,5,6,green,blue,2,0,2,0,1,1,5,1,1,?,Superior,100,3075,yes
2,41,F,N,2,65,more-than,4,1,green,black,2,0,1,0,4,0,6,1,-3,FALSE,Inferior,16.44908616,1609,no
2,41,F,N,2,66,exactly,5,2,green,red,3,0,1,1,1,0,5,0,-3,FALSE,Inferior,46.21409922,8173,no
2,41,F,N,2,67,exactly,6,8,blue,red,3,1,5,1,5,0,4,0,2,?,Superior,0.261096606,15396,no
2,41,F,N,2,68,exactly,4,7,red,black,3,1,3,1,1,1,2,0,3,?,Superior,16.71018277,2364,no
2,41,F,N,2,69,exactly,5,8,green,black,2,1,3,1,2,0,3,1,3,?,Superior,100,1688,no
2,41,F,N,2,70,exactly,5,7,red,green,6,0,2,1,5,1,5,0,2,?,Superior,18.2767624,1946,yes
2,41,F,N,2,71,exactly,4,5,red,black,4,1,1,1,6,0,5,0,1,?,Superior,69.19060052,1990,yes
2,41,F,N,2,72,no-less-than,6,3,red,green,2,0,2,1,2,0,4,0,-3,FALSE,Inferior,26.89295039,1889,no
2,41,F,N,2,73,no-more-than,4,3,red,yellow,5,0,5,0,5,1,4,0,-1,TRUE,Inferior,100,11770,no
2,41,F,N,2,74,less-than,5,8,green,yellow,2,1,1,0,6,1,4,0,3,FALSE,Superior,0,1964,no
2,41,F,N,2,75,more-than,6,9,green,blue,2,1,4,1,3,1,3,0,3,TRUE,Superior,100,2787,no
2,41,F,N,2,76,exactly,4,6,green,yellow,2,0,2,0,4,1,2,1,2,?,Superior,0,2741,yes
2,41,F,N,2,77,no-less-than,4,3,green,red,1,0,4,0,1,0,4,1,-1,FALSE,Inferior,87.98955614,2305,no
2,41,F,N,2,78,less-than,6,4,green,red,5,0,4,1,1,0,5,0,-2,TRUE,Inferior,38.90339426,1634,no
2,41,F,N,2,79,less-than,5,6,blue,black,1,1,1,0,3,1,2,1,1,FALSE,Superior,7.571801567,1986,no
2,41,F,N,2,80,exactly,6,6,green,blue,4,0,3,1,2,0,3,1,0,TRUE,Equal,55.61357702,1836,no
2,41,F,N,2,81,no-less-than,4,6,blue,black,5,0,1,1,2,1,3,1,2,TRUE,Superior,0,9357,no
2,41,F,N,2,82,more-than,4,7,blue,red,1,1,3,1,5,0,3,1,3,TRUE,Superior,100,6755,no
2,41,F,N,2,83,more-than,5,7,green,yellow,1,1,6,0,3,0,6,1,2,TRUE,Superior,100,3833,no
2,41,F,N,2,84,no-more-than,5,8,red,green,4,1,6,0,3,0,4,1,3,FALSE,Superior,100,6363,no
2,41,F,N,2,85,more-than,5,3,green,black,2,0,2,1,1,0,5,0,-2,FALSE,Inferior,0,2452,no
2,41,F,N,2,86,exactly,6,9,green,red,3,0,5,1,2,1,2,1,3,?,Superior,13.05483029,2820,no
2,41,F,N,2,87,more-than,5,6,blue,red,1,1,5,0,1,1,4,1,1,TRUE,Superior,1.305483029,10826,no
2,41,F,N,2,88,no-less-than,4,4,green,black,1,1,3,1,2,0,2,0,0,TRUE,Equal,39.94778068,2481,no
2,41,F,N,2,89,less-than,6,7,blue,yellow,1,1,2,1,4,1,1,0,1,FALSE,Superior,66.31853786,4635,no
2,41,F,N,2,90,less-than,6,5,red,blue,6,0,6,0,2,1,2,0,-1,TRUE,Inferior,2.349869452,1588,no
2,41,F,N,2,91,no-more-than,5,5,red,black,2,1,2,1,6,0,1,1,0,TRUE,Equal,86.94516971,1433,no
2,41,F,N,2,92,more-than,5,4,red,yellow,3,1,5,0,5,0,5,0,-1,FALSE,Inferior,50.91383812,1869,no
2,41,F,N,2,93,exactly,6,3,blue,green,1,0,3,1,6,0,5,0,-3,FALSE,Inferior,49.8694517,514,no
2,41,F,N,2,94,no-more-than,6,8,blue,red,1,0,1,1,3,1,4,1,2,FALSE,Superior,71.27937337,3804,no
2,41,F,N,2,95,exactly,6,9,green,blue,1,0,5,0,3,1,6,1,3,?,Superior,45.4308094,3298,yes
2,41,F,N,2,96,no-less-than,5,2,red,blue,4,0,4,0,3,1,1,0,-3,FALSE,Inferior,49.60835509,467,no
2,41,F,N,2,97,no-more-than,5,6,blue,green,2,0,3,1,1,0,3,1,1,FALSE,Superior,49.08616188,700,no
2,41,F,N,2,98,less-than,4,3,blue,yellow,5,0,1,1,2,0,2,0,-1,TRUE,Inferior,51.17493473,1059,no
2,41,F,N,2,99,exactly,5,8,red,blue,2,0,5,1,2,0,3,1,3,?,Superior,51.17493473,449,yes
2,41,F,N,2,100,less-than,6,8,green,yellow,3,0,2,0,4,1,4,1,2,FALSE,Superior,53.52480418,1989,no
2,41,F,N,2,101,no-more-than,5,3,blue,red,6,0,6,0,6,0,2,1,-2,TRUE,Inferior,51.43603133,908,no
2,41,F,N,2,102,no-less-than,5,5,green,black,3,1,2,0,1,1,1,1,0,TRUE,Equal,50.1305483,906,no
2,41,F,N,2,103,exactly,4,2,green,blue,4,1,1,0,4,0,1,0,-2,FALSE,Inferior,49.60835509,1714,no
2,41,F,N,2,104,exactly,6,7,red,yellow,1,1,3,1,2,0,3,1,1,?,Superior,49.34725849,1780,no
2,41,F,N,2,105,no-more-than,4,4,red,blue,6,0,2,1,3,0,2,1,0,TRUE,Equal,96.86684073,5025,no
2,41,F,N,2,106,less-than,5,3,green,blue,4,0,4,0,2,1,5,0,-2,TRUE,Inferior,0,6494,no
2,41,F,N,2,107,exactly,6,4,blue,yellow,4,0,6,0,1,0,5,1,-2,FALSE,Inferior,91.1227154,1634,no
2,41,F,N,2,108,more-than,4,3,green,blue,4,0,3,1,3,0,6,0,-1,FALSE,Inferior,0,3965,no
2,41,F,N,2,109,no-less-than,4,1,blue,black,2,0,2,0,4,0,4,1,-3,FALSE,Inferior,100,5105,no
2,41,F,N,2,110,more-than,4,2,green,black,2,1,4,0,4,0,4,0,-2,FALSE,Inferior,3.916449086,2868,no
2,41,F,N,2,111,no-less-than,6,4,red,yellow,4,1,4,0,1,0,6,0,-2,FALSE,Inferior,0,3288,no
2,41,F,N,2,112,exactly,4,1,red,green,5,0,2,0,1,0,6,1,-3,FALSE,Inferior,0,3702,no
2,41,F,N,2,113,no-more-than,4,6,red,black,3,1,2,0,3,0,3,1,2,FALSE,Superior,100,3193,no
2,41,F,N,2,114,no-more-than,5,7,red,blue,5,0,3,1,2,1,2,1,2,FALSE,Superior,100,7061,no
2,41,F,N,2,115,no-less-than,4,5,green,yellow,2,1,1,0,2,1,1,1,1,TRUE,Superior,3.916449086,1945,no
2,41,F,N,2,116,exactly,6,6,blue,red,3,0,2,0,2,0,6,1,0,TRUE,Equal,2.872062663,1900,yes
2,41,F,N,2,117,no-more-than,6,9,red,black,3,1,4,1,3,0,2,1,3,FALSE,Superior,95.3002611,2739,no
2,41,F,N,2,118,more-than,6,5,red,black,5,0,2,0,4,1,1,0,-1,FALSE,Inferior,50.39164491,2972,no
2,41,F,N,2,119,no-less-than,5,7,green,blue,6,0,1,0,1,1,6,1,2,TRUE,Superior,39.68668407,3995,no
2,41,F,N,2,120,no-less-than,5,6,green,red,3,1,4,0,3,0,3,1,1,TRUE,Superior,50.1305483,13,no
2,41,F,N,3,1,only2,5,5,red,black,1,1,3,1,1,1,2,0,0,TRUE,Equal,2.349869452,6972,no
2,41,F,N,3,2,only1,5,5,blue,black,6,0,4,1,1,1,3,0,0,TRUE,Equal,100,4209,no
2,41,F,N,3,3,only1,6,8,blue,yellow,4,0,4,1,1,1,3,1,2,FALSE,Superior,0.261096606,5981,no
2,41,F,N,3,4,only1,5,5,blue,green,1,1,3,0,3,1,1,1,0,TRUE,Equal,100,4251,no
2,41,F,N,3,5,only1,4,4,green,red,2,1,1,1,1,1,2,0,0,TRUE,Equal,100,6382,no
2,41,F,N,3,6,only2,4,7,blue,yellow,3,1,3,1,1,1,5,0,3,FALSE,Superior,0,3073,no
2,41,F,N,3,7,only2,6,6,blue,red,6,0,3,1,3,1,3,0,0,TRUE,Equal,0,3196,no
2,41,F,N,3,8,only2,4,5,blue,black,2,0,2,0,3,1,2,1,1,FALSE,Superior,100,3972,no
2,41,F,N,3,9,only1,4,7,red,blue,1,1,6,0,3,1,3,1,3,FALSE,Superior,1.305483029,4098,no
2,41,F,N,3,10,only2,5,6,blue,red,4,0,2,1,4,1,6,0,1,FALSE,Superior,70.23498695,5747,no
2,41,F,N,3,11,only2,6,7,red,black,4,1,5,0,1,1,2,1,1,FALSE,Superior,7.832898172,13906,no
2,41,F,N,3,12,only1,5,7,green,yellow,1,0,2,1,2,1,3,1,2,FALSE,Superior,0,12810,no
2,41,F,N,3,13,only2,4,4,green,yellow,3,0,3,1,1,1,5,0,0,TRUE,Equal,100,4034,no
2,41,F,N,3,14,only1,6,6,red,green,2,0,2,1,2,1,2,1,0,TRUE,Equal,100,3829,no
2,41,F,N,3,15,only2,6,6,green,red,3,1,4,0,6,0,3,1,0,TRUE,Equal,100,3785,no
2,41,F,N,3,16,only1,4,5,red,green,1,1,2,1,2,1,3,0,1,FALSE,Superior,1.305483029,3386,no
2,41,F,N,3,17,only2,6,8,blue,black,5,1,4,0,2,0,3,1,2,FALSE,Superior,0,5265,no
2,41,F,N,3,18,only1,6,6,green,yellow,2,0,1,1,5,1,6,0,0,TRUE,Equal,100,3627,no
2,41,F,N,3,19,only2,5,5,blue,yellow,3,0,2,1,3,1,2,0,0,TRUE,Equal,100,4411,no
2,41,F,N,3,20,only1,4,6,red,blue,2,1,5,0,2,1,2,1,2,FALSE,Superior,0,3388,no
2,41,F,N,3,21,only2,5,5,green,yellow,3,1,2,1,2,0,6,0,0,TRUE,Equal,100,4962,no
2,41,F,N,3,22,only1,4,4,red,black,2,1,5,0,3,0,2,1,0,TRUE,Equal,100,2244,no
2,41,F,N,3,23,only1,5,8,green,blue,6,1,2,1,6,0,5,0,3,FALSE,Superior,0,6885,no
2,41,F,N,3,24,only2,5,8,red,blue,1,1,4,1,3,1,6,0,3,FALSE,Superior,0,3675,no
2,41,F,N,3,25,only1,6,6,red,yellow,6,0,4,1,1,1,1,1,0,TRUE,Equal,100,5545,no
2,41,F,N,3,26,only1,4,4,green,blue,3,1,1,0,1,0,1,1,0,TRUE,Equal,100,5803,no
2,41,F,N,3,27,only1,6,7,green,black,1,1,4,1,2,1,3,0,1,FALSE,Superior,100,2618,no
2,41,F,N,3,28,only1,6,9,green,blue,2,0,4,1,6,0,5,1,3,FALSE,Superior,59.2689295,2787,no
2,41,F,N,3,29,only1,5,5,green,black,1,1,2,1,6,0,2,1,0,TRUE,Equal,50.39164491,2461,no
2,41,F,N,3,30,only2,6,6,blue,yellow,1,0,1,1,4,1,1,1,0,TRUE,Equal,100,3770,no
2,41,F,N,3,31,only1,5,6,green,red,1,0,3,1,3,1,4,0,1,FALSE,Superior,99.47780679,3302,no
2,41,F,N,3,32,only2,4,4,red,yellow,1,1,3,1,2,0,6,0,0,TRUE,Equal,46.21409922,1584,no
2,41,F,N,3,33,only2,6,9,blue,green,3,1,3,1,3,1,5,0,3,FALSE,Superior,0,3029,no
2,41,F,N,3,34,only2,5,7,blue,yellow,4,1,2,0,5,0,3,1,2,FALSE,Superior,0,7091,no
2,41,F,N,3,35,only2,4,6,blue,black,2,1,2,1,5,0,2,1,2,FALSE,Superior,100,3779,no
2,41,F,N,3,36,only2,4,4,red,yellow,2,0,3,1,1,1,2,0,0,TRUE,Equal,100,3532,no
3,21,F,N,1,1,exactly,4,7,blue,red,2,0,3,1,2,1,2,1,3,?,Superior,0,7899,no
3,21,F,N,1,2,less-than,4,5,blue,red,1,1,1,1,3,1,2,0,1,FALSE,Superior,0,7050,no
3,21,F,N,1,3,more-than,5,4,green,yellow,5,0,1,1,5,0,4,0,-1,FALSE,Inferior,0,5101,no
3,21,F,N,1,4,exactly,4,5,blue,green,4,1,5,0,1,1,3,0,1,?,Superior,0,3913,yes
3,21,F,N,1,5,exactly,5,6,blue,green,5,1,2,0,5,0,1,1,1,?,Superior,0,3294,yes
3,21,F,N,1,6,no-less-than,4,4,green,red,1,1,6,0,2,1,1,1,0,TRUE,Equal,65.79634465,10321,no
3,21,F,N,1,7,less-than,6,5,green,blue,5,1,1,0,3,0,1,0,-1,TRUE,Inferior,100,6745,no
3,21,F,N,1,8,no-less-than,6,4,blue,red,4,1,6,0,2,0,1,0,-2,FALSE,Inferior,0,5619,no
3,21,F,N,1,9,more-than,4,3,blue,red,3,0,5,0,6,0,4,1,-1,FALSE,Inferior,0,3078,no
3,21,F,N,1,10,no-more-than,4,1,red,black,2,1,3,0,2,0,1,0,-3,TRUE,Inferior,71.54046997,6721,no
3,21,F,N,1,11,no-less-than,5,6,red,green,3,0,3,1,1,0,3,1,1,TRUE,Superior,63.4464752,5738,no
3,21,F,N,1,12,exactly,6,6,green,red,4,1,5,0,1,1,1,1,0,TRUE,Equal,100,3806,no
3,21,F,N,1,13,exactly,6,7,blue,yellow,4,0,1,1,2,1,4,1,1,?,Superior,0,4483,no
3,21,F,N,1,14,no-more-than,6,3,green,black,4,0,3,1,2,0,4,0,-3,TRUE,Inferior,67.10182768,6003,no
3,21,F,N,1,15,more-than,5,6,blue,black,2,1,2,1,1,0,2,1,1,TRUE,Superior,100,5857,no
3,21,F,N,1,16,less-than,6,8,blue,red,2,1,4,1,1,0,2,1,2,FALSE,Superior,0,4744,no
3,21,F,N,1,17,more-than,6,6,green,black,1,1,3,0,4,1,1,1,0,FALSE,Equal,0,5691,no
3,21,F,N,1,18,no-more-than,4,7,red,yellow,2,0,3,1,3,1,1,1,3,FALSE,Superior,0,4027,no
3,21,F,N,1,19,exactly,4,4,green,yellow,1,1,5,0,6,0,3,1,0,TRUE,Equal,100,2846,no
3,21,F,N,1,20,exactly,4,6,red,blue,6,0,2,1,6,0,4,1,2,?,Superior,0,5737,yes
3,21,F,N,1,21,exactly,4,6,blue,red,2,1,2,1,6,0,2,1,2,?,Superior,0,3196,no
3,21,F,N,1,22,no-less-than,4,3,blue,red,6,0,2,0,6,0,1,1,-1,FALSE,Inferior,0,9257,no
3,21,F,N,1,23,no-more-than,4,6,red,blue,6,0,3,1,1,1,2,1,2,FALSE,Superior,0,3836,no
3,21,F,N,1,24,exactly,6,8,blue,green,2,0,4,0,4,1,4,1,2,?,Superior,0,2555,no
3,21,F,N,1,25,no-less-than,6,9,red,blue,1,0,4,1,3,1,2,1,3,TRUE,Superior,77.80678851,8828,no
3,21,F,N,1,26,less-than,5,6,red,green,4,1,5,0,4,0,2,1,1,FALSE,Superior,0,3205,no
3,21,F,N,1,27,exactly,5,8,blue,green,3,0,2,1,5,0,6,1,3,?,Superior,0,3226,no
3,21,F,N,1,28,exactly,4,2,red,black,2,1,4,0,1,0,4,0,-2,FALSE,Inferior,0,4201,no
3,21,F,N,1,29,more-than,6,3,green,black,5,1,1,0,2,0,1,0,-3,FALSE,Inferior,0,2739,no
3,21,F,N,1,30,exactly,5,7,blue,green,3,0,2,1,1,0,5,1,2,?,Superior,0,2534,yes
3,21,F,N,1,31,no-less-than,5,8,red,black,6,1,5,0,3,0,2,1,3,TRUE,Superior,61.35770235,5401,no
3,21,F,N,1,32,exactly,5,7,blue,red,3,1,4,1,2,0,4,0,2,?,Superior,0,5889,no
3,21,F,N,1,33,no-more-than,5,6,red,yellow,4,1,1,0,2,1,3,0,1,FALSE,Superior,0,3774,no
3,21,F,N,1,34,exactly,6,9,red,blue,3,1,3,0,2,1,4,1,3,?,Superior,0,3954,no
3,21,F,N,1,35,less-than,5,3,green,black,6,0,6,0,5,0,1,1,-2,TRUE,Inferior,72.845953,3861,no
3,21,F,N,1,36,more-than,4,1,green,red,1,0,6,0,6,0,4,1,-3,FALSE,Inferior,0,12796,no
3,21,F,N,1,37,no-less-than,4,7,red,blue,3,1,2,1,5,0,2,1,3,TRUE,Superior,78.06788512,9618,no
3,21,F,N,1,38,no-less-than,6,8,blue,yellow,4,1,2,1,2,1,6,0,2,TRUE,Superior,83.02872063,4737,no
3,21,F,N,1,39,exactly,5,2,green,black,4,0,1,1,5,0,4,0,-3,FALSE,Inferior,0,1754,no
3,21,F,N,1,40,no-less-than,5,2,red,yellow,5,0,6,0,1,0,2,1,-3,FALSE,Inferior,0,2852,no
3,21,F,N,1,41,less-than,6,9,blue,green,6,0,2,1,3,1,4,1,3,FALSE,Superior,0,2877,no
3,21,F,N,1,42,exactly,5,5,blue,red,2,1,3,1,3,0,2,0,0,TRUE,Equal,100,2355,no
3,21,F,N,1,43,exactly,6,7,green,red,1,1,4,0,6,1,5,0,1,?,Superior,0,1755,yes
3,21,F,N,1,44,less-than,4,2,green,black,3,0,4,0,6,1,4,0,-2,TRUE,Inferior,0,2642,no
3,21,F,N,1,45,exactly,4,7,green,red,3,1,4,1,1,0,4,0,3,?,Superior,3.394255875,2204,yes
3,21,F,N,1,46,no-more-than,6,6,green,black,4,1,1,1,1,1,5,0,0,TRUE,Equal,91.64490862,5812,no
3,21,F,N,1,47,exactly,6,6,red,black,2,1,4,1,1,0,3,0,0,TRUE,Equal,100,2280,no
3,21,F,N,1,48,no-more-than,4,5,red,green,1,1,2,1,2,1,4,0,1,FALSE,Superior,0,3748,no
3,21,F,N,1,49,more-than,5,7,blue,green,2,0,2,0,4,1,3,1,2,TRUE,Superior,87.72845953,2948,no
3,21,F,N,1,50,exactly,6,3,red,green,2,1,5,0,2,0,1,0,-3,FALSE,Inferior,0,3066,no
3,21,F,N,1,51,no-less-than,4,1,green,yellow,6,0,3,1,3,0,1,0,-3,FALSE,Inferior,1.305483029,6755,no
3,21,F,N,1,52,exactly,4,4,blue,yellow,5,0,1,0,4,1,1,0,0,TRUE,Equal,100,6925,yes
3,21,F,N,1,53,exactly,6,5,blue,yellow,1,0,4,1,2,0,4,0,-1,FALSE,Inferior,0,1740,no
3,21,F,N,1,54,no-more-than,5,5,red,blue,1,1,1,1,1,0,3,1,0,TRUE,Equal,82.50652742,4392,no
3,21,F,N,1,55,more-than,6,5,green,blue,5,0,3,0,1,1,1,0,-1,FALSE,Inferior,0,3965,no
3,21,F,N,1,56,less-than,4,7,red,yellow,3,1,2,1,6,0,2,1,3,FALSE,Superior,0,2761,no
3,21,F,N,1,57,no-more-than,4,3,green,red,3,0,4,0,5,0,5,1,-1,TRUE,Inferior,0,5275,no
3,21,F,N,1,58,less-than,6,7,green,black,1,0,4,1,3,1,6,0,1,FALSE,Superior,0,4604,no
3,21,F,N,1,59,exactly,5,6,red,green,1,1,4,1,6,0,1,1,1,?,Superior,0,2786,no
3,21,F,N,1,60,exactly,5,5,green,black,5,1,3,0,3,0,3,0,0,TRUE,Equal,100,1723,yes
3,21,F,N,1,61,more-than,4,4,blue,black,4,0,1,1,3,1,4,0,0,FALSE,Equal,0,15783,no
3,21,F,N,1,62,more-than,5,5,green,blue,3,1,2,0,1,1,1,1,0,FALSE,Equal,0,3976,no
3,21,F,N,1,63,exactly,4,4,green,black,1,0,2,1,2,1,4,0,0,TRUE,Equal,100,2261,no
3,21,F,N,1,64,no-less-than,4,2,blue,red,6,1,5,0,4,0,1,0,-2,FALSE,Inferior,74.41253264,10433,no
3,21,F,N,1,65,more-than,5,2,green,red,1,0,5,0,3,0,3,1,-3,FALSE,Inferior,0,1853,no
3,21,F,N,1,66,no-more-than,6,7,green,black,2,0,3,1,4,0,4,1,1,FALSE,Superior,0,3124,no
3,21,F,N,1,67,no-more-than,5,3,red,blue,6,0,1,0,2,1,3,0,-2,TRUE,Inferior,74.41253264,5483,no
3,21,F,N,1,68,less-than,5,4,red,blue,5,0,6,1,5,0,1,0,-1,TRUE,Inferior,0,2073,no
3,21,F,N,1,69,no-more-than,6,5,green,yellow,2,0,5,0,1,0,6,1,-1,TRUE,Inferior,83.28981723,3661,no
3,21,F,N,1,70,exactly,5,3,green,yellow,2,0,4,1,5,0,6,0,-2,FALSE,Inferior,0,1704,no
3,21,F,N,1,71,less-than,4,4,blue,green,5,0,1,1,1,1,2,1,0,FALSE,Equal,0,5019,no
3,21,F,N,1,72,more-than,6,7,green,yellow,3,1,1,1,3,1,3,0,1,TRUE,Superior,100,5275,no
3,21,F,N,1,73,less-than,6,4,blue,yellow,2,0,6,0,2,0,2,1,-2,TRUE,Inferior,74.41253264,5684,no
3,21,F,N,1,74,no-more-than,5,2,green,red,2,0,1,1,3,0,5,0,-3,TRUE,Inferior,62.40208877,3472,no
3,21,F,N,1,75,less-than,5,5,green,black,1,0,2,1,2,0,3,1,0,FALSE,Equal,0,2867,no
3,21,F,N,1,76,less-than,4,3,blue,red,6,0,2,1,4,0,6,0,-1,TRUE,Inferior,68.66840731,3588,no
3,21,F,N,1,77,no-less-than,6,5,blue,green,4,0,6,0,4,0,5,1,-1,FALSE,Inferior,0,13195,no
3,21,F,N,1,78,more-than,4,5,red,yellow,3,1,2,1,1,0,3,0,1,TRUE,Superior,100,2227,no
3,21,F,N,1,79,exactly,4,3,red,black,6,0,4,0,1,0,5,1,-1,FALSE,Inferior,0,1836,no
3,21,F,N,1,80,no-more-than,6,4,blue,red,4,0,4,0,2,0,4,1,-2,TRUE,Inferior,72.06266319,4699,no
3,21,F,N,1,81,no-more-than,5,8,green,blue,3,1,3,1,1,0,2,1,3,FALSE,Superior,0,2698,no
3,21,F,N,1,82,no-less-than,5,4,blue,green,2,0,4,0,5,1,2,0,-1,FALSE,Inferior,81.9843342,3901,no
3,21,F,N,1,83,less-than,6,3,blue,red,5,0,5,0,2,1,4,0,-3,TRUE,Inferior,100,4257,no
3,21,F,N,1,84,more-than,6,4,blue,red,5,0,4,1,2,0,3,0,-2,FALSE,Inferior,0,2602,no
3,21,F,N,1,85,no-less-than,4,5,green,red,3,1,2,1,5,0,2,0,1,TRUE,Superior,81.46214099,4346,no
3,21,F,N,1,86,exactly,6,8,blue,yellow,2,1,6,1,2,0,1,0,2,?,Superior,0,2003,yes
3,21,F,N,1,87,no-more-than,4,2,green,red,5,0,3,1,5,0,6,0,-2,TRUE,Inferior,85.37859008,4029,no
3,21,F,N,1,88,no-less-than,6,6,green,yellow,4,0,4,1,2,1,5,0,0,TRUE,Equal,83.55091384,4378,no
3,21,F,N,1,89,less-than,6,6,red,blue,3,1,3,1,6,0,6,0,0,FALSE,Equal,0,5800,no
3,21,F,N,1,90,more-than,6,9,blue,black,5,1,2,1,1,0,2,1,3,TRUE,Superior,100,4190,no
3,21,F,N,1,91,more-than,4,6,red,yellow,2,0,1,1,2,1,3,1,2,TRUE,Superior,100,2603,no
3,21,F,N,1,92,no-less-than,5,5,blue,red,2,1,1,1,4,0,2,1,0,TRUE,Equal,100,6330,no
3,21,F,N,1,93,less-than,4,1,blue,yellow,4,1,4,0,2,0,1,0,-3,TRUE,Inferior,0,1849,no
3,21,F,N,1,94,less-than,5,7,red,black,3,0,4,1,3,0,3,1,2,FALSE,Superior,0,4269,no
3,21,F,N,1,95,no-more-than,4,4,blue,green,2,1,1,0,5,0,2,1,0,TRUE,Equal,0,18228,no
3,21,F,N,1,96,no-less-than,5,3,green,black,2,0,4,0,3,0,5,1,-2,FALSE,Inferior,100,8154,no
3,21,F,N,1,97,no-more-than,5,7,red,blue,4,1,2,1,4,0,1,1,2,FALSE,Superior,0,3505,no
3,21,F,N,1,98,exactly,5,5,green,yellow,4,1,4,0,1,1,6,0,0,TRUE,Equal,100,1523,no
3,21,F,N,1,99,more-than,5,3,red,black,4,0,3,1,6,0,3,0,-2,FALSE,Inferior,0,1766,no
3,21,F,N,1,100,exactly,4,5,red,yellow,2,1,2,1,1,1,3,0,1,?,Superior,0,2316,no
3,21,F,N,1,101,more-than,6,8,red,black,3,0,2,0,4,1,4,1,2,TRUE,Superior,100,3017,no
3,21,F,N,1,102,exactly,6,6,green,blue,4,0,3,0,6,1,2,0,0,TRUE,Equal,100,1748,yes
3,21,F,N,1,103,less-than,5,8,red,blue,4,1,3,0,2,0,4,1,3,FALSE,Superior,0,10601,no
3,21,F,N,1,104,no-less-than,5,7,blue,green,6,0,6,1,3,0,1,1,2,TRUE,Superior,85.63968668,3565,no
3,21,F,N,1,105,no-more-than,5,4,green,yellow,5,0,5,0,1,0,3,1,-1,TRUE,Inferior,100,5273,no
3,21,F,N,1,106,more-than,5,8,red,blue,2,1,4,0,3,1,3,1,3,TRUE,Superior,100,2396,no
3,21,F,N,1,107,less-than,5,2,green,yellow,2,0,3,0,6,1,3,0,-3,TRUE,Inferior,12.79373368,2990,no
3,21,F,N,1,108,more-than,4,7,red,black,1,0,3,1,3,1,1,1,3,TRUE,Superior,100,4402,no
3,21,F,N,1,109,more-than,4,2,blue,green,6,0,5,0,6,1,5,0,-2,FALSE,Inferior,100,5858,no
3,21,F,N,1,110,no-less-than,4,6,red,green,3,1,1,1,5,0,2,1,2,TRUE,Superior,100,3572,no
3,21,F,N,1,111,no-more-than,6,8,green,red,3,1,2,0,3,1,2,1,2,FALSE,Superior,0,2710,no
3,21,F,N,1,112,exactly,6,9,red,yellow,6,0,3,1,6,0,6,1,3,?,Superior,0,2319,yes
3,21,F,N,1,113,no-less-than,6,7,red,black,2,1,1,1,4,1,2,0,1,TRUE,Superior,100,3436,no
3,21,F,N,1,114,exactly,6,4,green,yellow,5,1,4,0,5,0,1,0,-2,FALSE,Inferior,0,1592,no
3,21,F,N,1,115,less-than,4,6,red,black,2,1,1,1,6,0,3,1,2,FALSE,Superior,0,3323,no
3,21,F,N,1,116,no-less-than,6,3,green,black,6,0,4,1,5,0,6,0,-3,FALSE,Inferior,0,3923,no
3,21,F,N,1,117,exactly,5,4,red,black,2,0,6,1,4,0,6,0,-1,FALSE,Inferior,0,2628,no
3,21,F,N,1,118,exactly,5,8,blue,red,5,0,3,1,4,0,5,1,3,?,Superior,0,2053,yes
3,21,F,N,1,119,exactly,4,1,blue,green,2,0,6,1,6,0,5,0,-3,FALSE,Inferior,0,2680,no
3,21,F,N,1,120,no-more-than,6,9,red,blue,4,1,3,1,2,1,1,0,3,FALSE,Superior,0,3173,no
3,21,F,N,2,1,exactly,4,4,green,blue,4,0,6,0,2,1,2,1,0,TRUE,Equal,100,6785,no
3,21,F,N,2,2,more-than,6,6,blue,yellow,1,1,5,1,2,0,4,0,0,FALSE,Equal,0,3988,no
3,21,F,N,2,3,exactly,5,5,blue,green,1,1,1,0,3,1,1,1,0,TRUE,Equal,100,2364,no
3,21,F,N,2,4,no-more-than,6,6,blue,red,6,0,6,0,5,1,1,1,0,TRUE,Equal,100,3652,no
3,21,F,N,2,5,exactly,6,6,blue,yellow,3,0,2,1,4,1,5,0,0,TRUE,Equal,100,2612,no
3,21,F,N,2,6,more-than,5,5,red,blue,1,1,4,0,6,0,4,1,0,FALSE,Equal,0,2769,no
3,21,F,N,2,7,exactly,4,5,red,black,3,0,4,1,1,0,1,1,1,?,Superior,0,4013,yes
3,21,F,N,2,8,less-than,5,2,red,yellow,2,0,3,0,4,0,6,1,-3,TRUE,Inferior,0,2186,no
3,21,F,N,2,9,exactly,4,4,blue,red,1,1,3,0,1,1,2,1,0,TRUE,Equal,100,1907,no
3,21,F,N,2,10,exactly,6,7,blue,red,2,0,1,1,6,1,2,0,1,?,Superior,0,2003,yes
3,21,F,N,2,11,more-than,4,4,green,yellow,2,0,1,1,2,1,1,1,0,FALSE,Equal,0,3811,no
3,21,F,N,2,12,no-less-than,5,7,red,blue,3,1,6,0,4,1,6,0,2,TRUE,Superior,100,3051,no
3,21,F,N,2,13,exactly,4,7,blue,green,4,0,3,1,1,1,3,1,3,?,Superior,0,2297,no
3,21,F,N,2,14,more-than,5,3,red,green,3,0,4,1,6,0,6,0,-2,FALSE,Inferior,0,3818,no
3,21,F,N,2,15,more-than,4,3,blue,green,2,0,2,1,2,0,6,0,-1,FALSE,Inferior,0,2475,no
3,21,F,N,2,16,exactly,5,3,blue,green,2,0,5,0,2,0,2,1,-2,FALSE,Inferior,0,2237,no
3,21,F,N,2,17,more-than,5,6,blue,yellow,2,1,5,0,2,1,2,1,1,TRUE,Superior,100,2428,no
3,21,F,N,2,18,no-less-than,5,5,blue,black,2,1,1,1,4,0,2,1,0,TRUE,Equal,100,4131,no
3,21,F,N,2,19,exactly,6,4,blue,red,5,1,4,0,5,0,4,0,-2,FALSE,Inferior,0,2001,no
3,21,F,N,2,20,no-less-than,6,3,green,black,5,0,4,0,4,0,3,1,-3,FALSE,Inferior,0,4227,no
3,21,F,N,2,21,no-less-than,4,1,red,blue,6,1,2,0,6,0,3,0,-3,FALSE,Inferior,100,3130,no
3,21,F,N,2,22,exactly,6,9,green,black,3,0,2,1,5,1,2,1,3,?,Superior,0,1821,no
3,21,F,N,2,23,more-than,4,6,green,black,3,1,3,1,3,0,1,0,2,TRUE,Superior,100,2228,no
3,21,F,N,2,24,no-less-than,4,3,red,yellow,5,0,1,0,3,1,2,0,-1,FALSE,Inferior,0,8961,no
3,21,F,N,2,25,no-less-than,6,4,blue,black,1,0,3,0,5,1,4,0,-2,FALSE,Inferior,0,4052,no
3,21,F,N,2,26,less-than,5,7,red,yellow,1,1,2,1,1,0,4,1,2,FALSE,Superior,0,2604,no
3,21,F,N,2,27,more-than,5,2,blue,yellow,5,0,2,1,1,0,6,0,-3,FALSE,Inferior,0,3747,no
3,21,F,N,2,28,less-than,5,3,red,yellow,1,1,1,0,1,0,3,0,-2,TRUE,Inferior,100,1769,no
3,21,F,N,2,29,no-less-than,6,8,green,yellow,1,0,1,1,3,1,4,1,2,TRUE,Superior,100,3244,no
3,21,F,N,2,30,exactly,5,4,green,yellow,5,0,3,1,2,0,6,0,-1,FALSE,Inferior,0,2106,no
3,21,F,N,2,31,less-than,5,4,green,yellow,6,0,1,1,5,0,4,0,-1,TRUE,Inferior,100,1858,no
3,21,F,N,2,32,exactly,6,8,red,green,1,1,4,1,2,0,3,1,2,?,Superior,0,2797,no
3,21,F,N,2,33,no-more-than,4,3,red,blue,2,0,4,0,3,1,1,0,-1,TRUE,Inferior,100,2883,no
3,21,F,N,2,34,less-than,6,7,blue,red,3,0,4,1,3,1,2,0,1,FALSE,Superior,0,3117,no
3,21,F,N,2,35,no-less-than,6,5,red,yellow,5,0,6,0,3,1,4,0,-1,FALSE,Inferior,0,4568,no
3,21,F,N,2,36,more-than,6,7,red,green,3,1,5,0,5,0,4,1,1,TRUE,Superior,100,2037,no
3,21,F,N,2,37,no-more-than,5,6,blue,green,2,1,3,0,3,1,1,1,1,FALSE,Superior,0,2940,no
3,21,F,N,2,38,less-than,4,5,blue,black,1,1,3,1,1,1,3,0,1,FALSE,Superior,0,3018,no
3,21,F,N,2,39,less-than,4,3,green,red,6,0,3,0,2,0,3,1,-1,TRUE,Inferior,100,2467,no
3,21,F,N,2,40,exactly,6,6,red,green,1,0,6,1,3,0,3,0,0,TRUE,Equal,100,2106,yes
3,21,F,N,2,41,no-more-than,5,7,blue,black,3,1,5,0,5,0,4,1,2,FALSE,Superior,0,3683,no
3,21,F,N,2,42,no-less-than,4,2,red,blue,3,0,2,1,2,0,4,0,-2,FALSE,Inferior,0,2994,no
3,21,F,N,2,43,more-than,4,1,red,blue,4,0,5,1,2,0,3,0,-3,FALSE,Inferior,100,2108,no
3,21,F,N,2,44,exactly,5,6,red,yellow,4,0,4,0,5,1,1,1,1,?,Superior,0,2331,yes
3,21,F,N,2,45,exactly,5,8,blue,green,3,1,5,1,3,0,5,0,3,?,Superior,0,4045,yes
3,21,F,N,2,46,no-less-than,5,6,blue,red,2,1,2,1,2,1,2,0,1,TRUE,Superior,0,3058,no
3,21,F,N,2,47,exactly,6,7,blue,red,1,0,2,0,2,1,5,1,1,?,Superior,0,2299,no
3,21,F,N,2,48,less-than,4,1,blue,green,6,0,1,0,5,1,1,0,-3,TRUE,Inferior,0,2434,no
3,21,F,N,2,49,no-more-than,4,4,red,blue,1,1,2,1,1,1,6,0,0,TRUE,Equal,100,4374,no
3,21,F,N,2,50,more-than,6,9,green,yellow,2,1,3,1,2,0,4,1,3,TRUE,Superior,100,3602,no
3,21,F,N,2,51,no-less-than,4,7,blue,red,5,0,3,1,2,1,2,1,3,TRUE,Superior,100,3121,no
3,21,F,N,2,52,exactly,5,5,blue,yellow,2,0,6,0,4,0,5,1,0,TRUE,Equal,100,2276,yes
3,21,F,N,2,53,no-less-than,5,2,green,blue,1,1,2,0,5,0,4,0,-3,FALSE,Inferior,0,3315,no
3,21,F,N,2,54,less-than,6,9,blue,black,2,0,5,1,6,0,4,1,3,FALSE,Superior,0,2739,no
3,21,F,N,2,55,no-more-than,4,1,red,blue,6,0,3,0,3,1,5,0,-3,TRUE,Inferior,100,7826,no
3,21,F,N,2,56,exactly,4,1,green,red,4,0,1,1,1,0,1,0,-3,FALSE,Inferior,0,1722,no
3,21,F,N,2,57,no-more-than,6,8,blue,red,4,1,4,1,5,0,2,0,2,FALSE,Superior,0,2322,no
3,21,F,N,2,58,less-than,4,2,red,black,1,0,1,0,5,0,6,1,-2,TRUE,Inferior,0,3612,no
3,21,F,N,2,59,more-than,5,4,green,red,1,0,5,0,5,0,4,1,-1,FALSE,Inferior,0,2764,no
3,21,F,N,2,60,more-than,5,7,blue,black,1,0,1,1,6,1,6,0,2,TRUE,Superior,100,4109,no
3,21,F,N,2,61,exactly,5,7,red,black,6,1,3,0,1,1,5,0,2,?,Superior,0,2259,no
3,21,F,N,2,62,no-more-than,4,6,green,black,2,1,3,1,1,1,5,0,2,FALSE,Superior,0,5217,no
3,21,F,N,2,63,exactly,4,6,red,blue,4,1,4,0,2,1,4,0,2,?,Superior,0,1941,yes
3,21,F,N,2,64,no-less-than,5,8,green,yellow,1,0,3,0,6,1,2,1,3,TRUE,Superior,100,2075,no
3,21,F,N,2,65,no-more-than,5,2,red,green,5,0,4,0,4,0,5,1,-3,TRUE,Inferior,100,9000,no
3,21,F,N,2,66,less-than,5,6,red,green,2,1,3,1,4,0,1,1,1,FALSE,Superior,0,2180,no
3,21,F,N,2,67,less-than,6,6,blue,red,1,0,4,1,2,0,2,1,0,FALSE,Equal,0,4980,no
3,21,F,N,2,68,less-than,6,4,blue,black,3,1,2,0,5,0,5,0,-2,TRUE,Inferior,100,2922,no
3,21,F,N,2,69,more-than,4,5,red,blue,2,1,1,1,2,1,2,0,1,TRUE,Superior,100,2315,no
3,21,F,N,2,70,no-less-than,6,7,green,yellow,3,0,1,0,4,1,3,1,1,TRUE,Superior,100,3411,no
3,21,F,N,2,71,no-less-than,5,4,green,black,6,0,4,0,1,1,2,0,-1,FALSE,Inferior,0,7524,no
3,21,F,N,2,72,exactly,4,3,green,red,3,0,4,0,4,0,3,1,-1,FALSE,Inferior,0,2677,no
3,21,F,N,2,73,exactly,6,5,green,black,2,0,3,1,3,0,5,0,-1,FALSE,Inferior,0,1881,no
3,21,F,N,2,74,no-more-than,6,7,green,yellow,2,1,5,0,4,1,1,1,1,FALSE,Superior,0,3045,no
3,21,F,N,2,75,no-more-than,5,5,red,yellow,2,0,3,1,2,1,5,0,0,TRUE,Equal,100,2251,no
3,21,F,N,2,76,less-than,6,8,red,yellow,4,1,2,1,3,0,2,1,2,FALSE,Superior,0,3275,no
3,21,F,N,2,77,no-less-than,5,3,blue,red,3,1,4,0,4,0,1,0,-2,FALSE,Inferior,0,8000,no
3,21,F,N,2,78,less-than,4,7,red,green,2,1,6,0,2,1,3,1,3,FALSE,Superior,0,2005,no
3,21,F,N,2,79,no-less-than,6,6,green,blue,4,1,2,1,4,0,3,0,0,TRUE,Equal,100,2506,no
3,21,F,N,2,80,more-than,6,8,green,blue,4,1,2,1,6,0,2,1,2,TRUE,Superior,100,1755,no
3,21,F,N,2,81,exactly,4,5,green,yellow,3,0,3,1,1,1,1,1,1,?,Superior,0,2020,no
3,21,F,N,2,82,less-than,5,8,red,blue,4,0,4,1,4,1,3,0,3,FALSE,Superior,0,2153,no
3,21,F,N,2,83,more-than,6,3,red,yellow,1,0,3,0,6,0,1,1,-3,FALSE,Inferior,0,2486,no
3,21,F,N,2,84,no-more-than,6,5,green,blue,2,0,1,0,1,0,6,1,-1,TRUE,Inferior,100,2327,no
3,21,F,N,2,85,less-than,4,6,red,black,4,0,2,1,2,1,2,1,2,FALSE,Superior,0,2133,no
3,21,F,N,2,86,no-more-than,5,4,red,yellow,5,0,4,0,5,0,1,1,-1,TRUE,Inferior,100,2683,no
3,21,F,N,2,87,exactly,5,6,green,yellow,4,1,2,1,3,0,6,0,1,?,Superior,0,1709,no
3,21,F,N,2,88,exactly,4,6,red,yellow,3,1,4,0,2,1,1,1,2,?,Superior,0,1808,no
3,21,F,N,2,89,exactly,5,2,blue,green,4,1,1,0,5,0,1,0,-3,FALSE,Inferior,0,2158,no
3,21,F,N,2,90,exactly,6,6,red,green,2,1,2,1,1,0,2,1,0,TRUE,Equal,100,2154,no
3,21,F,N,2,91,more-than,6,4,green,black,4,0,5,1,2,0,4,0,-2,FALSE,Inferior,0,2499,no
3,21,F,N,2,92,no-less-than,6,9,blue,red,3,1,5,0,3,1,3,1,3,TRUE,Superior,100,2153,no
3,21,F,N,2,93,no-less-than,4,6,green,red,2,1,2,1,2,1,1,0,2,TRUE,Superior,100,4394,no
3,21,F,N,2,94,more-than,4,2,red,green,1,0,5,1,5,0,6,0,-2,FALSE,Inferior,100,2221,no
3,21,F,N,2,95,exactly,5,5,blue,black,1,1,5,0,4,0,4,1,0,TRUE,Equal,100,2002,no
3,21,F,N,2,96,less-than,4,4,green,black,6,0,2,1,1,1,1,1,0,FALSE,Equal,0,3325,no
3,21,F,N,2,97,exactly,5,7,blue,yellow,5,1,2,1,6,0,5,0,2,?,Superior,0,2873,yes
3,21,F,N,2,98,no-less-than,4,4,red,yellow,5,0,1,1,1,1,2,1,0,TRUE,Equal,100,2401,no
3,21,F,N,2,99,no-more-than,4,7,blue,green,1,1,3,1,3,1,4,0,3,FALSE,Superior,0,7343,no
3,21,F,N,2,100,exactly,6,8,blue,yellow,4,0,5,0,2,1,6,1,2,?,Superior,0,1961,yes
3,21,F,N,2,101,no-more-than,6,3,green,blue,2,1,6,0,1,0,3,0,-3,TRUE,Inferior,95.03916449,2869,no
3,21,F,N,2,102,no-more-than,5,3,blue,black,2,1,2,0,2,0,4,0,-2,TRUE,Inferior,88.77284595,3113,no
3,21,F,N,2,103,less-than,5,5,blue,black,1,1,1,0,4,1,3,0,0,FALSE,Equal,0,2539,no
3,21,F,N,2,104,no-more-than,6,4,green,yellow,2,0,5,0,3,1,3,0,-2,TRUE,Inferior,100,12851,no
3,21,F,N,2,105,more-than,4,7,red,green,3,1,2,0,1,1,3,1,3,TRUE,Superior,100,4044,no
3,21,F,N,2,106,exactly,6,9,red,black,6,1,6,0,3,1,5,0,3,?,Superior,0,1700,yes
3,21,F,N,2,107,no-more-than,6,9,blue,black,2,0,2,1,3,1,4,1,3,FALSE,Superior,0,3282,no
3,21,F,N,2,108,less-than,6,5,green,yellow,1,0,1,1,3,0,1,0,-1,TRUE,Inferior,100,1741,no
3,21,F,N,2,109,exactly,4,2,red,green,6,0,2,1,2,0,3,0,-2,FALSE,Inferior,0,2538,no
3,21,F,N,2,110,exactly,4,4,red,green,5,0,5,0,3,0,4,1,0,TRUE,Equal,100,1817,yes
3,21,F,N,2,111,no-more-than,4,5,red,green,1,1,1,1,3,0,3,1,1,FALSE,Superior,0,2581,no
3,21,F,N,2,112,more-than,5,8,red,blue,2,1,3,1,3,1,3,0,3,TRUE,Superior,100,2196,no
3,21,F,N,2,113,exactly,6,3,red,blue,1,0,1,0,6,0,5,1,-3,FALSE,Inferior,0,1882,no
3,21,F,N,2,114,no-more-than,4,2,red,black,1,1,3,0,6,0,1,0,-2,TRUE,Inferior,100,2145,no
3,21,F,N,2,115,no-less-than,4,5,blue,black,1,1,1,1,4,0,3,1,1,TRUE,Superior,100,3022,no
3,21,F,N,2,116,exactly,5,8,green,red,6,0,4,1,3,1,1,1,3,?,Superior,0,2835,no
3,21,F,N,2,117,exactly,4,7,red,blue,4,1,3,1,5,0,3,0,3,?,Superior,0,2098,yes
3,21,F,N,2,118,less-than,6,3,red,black,2,0,6,0,4,0,6,1,-3,TRUE,Inferior,0,3268,no
3,21,F,N,2,119,no-more-than,5,8,blue,green,4,1,4,1,6,0,2,0,3,FALSE,Superior,0,2947,no
3,21,F,N,2,120,more-than,6,5,red,green,6,0,4,1,6,0,1,0,-1,FALSE,Inferior,0,1907,no
3,21,F,N,3,1,only1,4,4,green,black,2,1,2,1,5,0,3,0,0,TRUE,Equal,100,2466,no
3,21,F,N,3,2,only2,6,8,red,yellow,5,0,2,0,4,1,4,1,2,FALSE,Superior,0,3363,no
3,21,F,N,3,3,only1,5,5,green,blue,1,1,3,1,1,1,3,0,0,TRUE,Equal,100,2011,no
3,21,F,N,3,4,only2,6,6,red,green,3,1,4,0,3,1,5,0,0,TRUE,Equal,100,1987,no
3,21,F,N,3,5,only2,5,6,red,black,6,0,3,0,3,1,3,1,1,FALSE,Superior,0,1786,no
3,21,F,N,3,6,only1,6,9,green,blue,3,1,2,1,6,0,4,1,3,FALSE,Superior,0,2301,no
3,21,F,N,3,7,only2,4,4,green,red,2,1,1,1,1,0,1,1,0,TRUE,Equal,100,2204,no
3,21,F,N,3,8,only2,4,5,green,black,5,0,3,0,2,1,3,1,1,FALSE,Superior,0,1808,no
3,21,F,N,3,9,only1,4,4,green,red,6,0,1,1,3,1,6,0,0,TRUE,Equal,100,1277,no
3,21,F,N,3,10,only2,5,5,red,blue,4,0,1,0,2,1,3,1,0,TRUE,Equal,100,2001,no
3,21,F,N,3,11,only2,5,5,red,yellow,2,1,6,0,1,1,2,1,0,TRUE,Equal,100,2092,no
3,21,F,N,3,12,only1,6,8,blue,green,2,1,3,1,1,0,3,1,2,FALSE,Superior,0,2188,no
3,21,F,N,3,13,only1,4,4,green,blue,1,1,2,1,1,1,4,0,0,TRUE,Equal,100,1218,no
3,21,F,N,3,14,only2,6,7,blue,green,3,1,3,1,4,0,1,1,1,FALSE,Superior,0,2651,no
3,21,F,N,3,15,only2,4,4,blue,green,1,1,5,0,2,1,1,1,0,TRUE,Equal,100,1949,no
3,21,F,N,3,16,only2,5,8,green,red,4,0,3,0,2,1,6,1,3,FALSE,Superior,0,1632,no
3,21,F,N,3,17,only1,6,6,green,black,1,1,4,0,4,1,1,1,0,TRUE,Equal,100,1660,no
3,21,F,N,3,18,only1,4,6,green,black,2,1,1,1,3,1,3,0,2,FALSE,Superior,0,1859,no
3,21,F,N,3,19,only1,6,6,green,yellow,1,1,4,1,5,0,1,1,0,TRUE,Equal,100,1545,no
3,21,F,N,3,20,only1,4,5,red,green,3,0,1,1,1,1,3,1,1,FALSE,Superior,0,2188,no
3,21,F,N,3,21,only2,6,9,blue,yellow,2,1,2,1,1,0,5,1,3,FALSE,Superior,0,2203,no
3,21,F,N,3,22,only2,5,5,blue,green,1,1,1,0,4,1,2,0,0,TRUE,Equal,100,1854,no
3,21,F,N,3,23,only1,5,6,red,blue,3,0,4,1,1,1,1,1,1,FALSE,Superior,0,1962,no
3,21,F,N,3,24,only1,4,7,green,blue,1,1,5,0,3,1,3,1,3,FALSE,Superior,0,2011,no
3,21,F,N,3,25,only1,6,7,green,black,1,1,3,1,1,0,3,1,1,FALSE,Superior,0,2033,no
3,21,F,N,3,26,only1,5,7,blue,green,2,1,6,0,3,1,2,1,2,FALSE,Superior,0,1810,no
3,21,F,N,3,27,only2,6,6,blue,black,1,1,5,1,3,0,5,0,0,TRUE,Equal,100,2581,no
3,21,F,N,3,28,only2,4,7,red,green,5,0,2,1,3,1,2,1,3,FALSE,Superior,0,2467,no
3,21,F,N,3,29,only2,6,6,blue,green,2,0,3,1,3,1,2,0,0,TRUE,Equal,100,1886,no
3,21,F,N,3,30,only1,6,6,green,red,1,0,2,1,2,1,2,1,0,TRUE,Equal,100,1864,no
3,21,F,N,3,31,only2,5,7,blue,green,2,1,3,1,2,1,3,0,2,FALSE,Superior,0,4330,no
3,21,F,N,3,32,only1,5,8,red,yellow,1,1,5,0,3,1,4,1,3,FALSE,Superior,0,1790,no
3,21,F,N,3,33,only1,5,5,blue,black,2,0,3,1,1,1,1,1,0,TRUE,Equal,100,1403,no
3,21,F,N,3,34,only2,4,4,blue,black,1,1,2,0,2,1,1,1,0,TRUE,Equal,100,1900,no
3,21,F,N,3,35,only2,4,6,green,blue,3,1,3,0,3,1,3,0,2,FALSE,Superior,0,1617,no
3,21,F,N,3,36,only1,5,5,red,green,5,0,2,0,2,1,3,1,0,TRUE,Equal,0,2028,no
4,40,M,N,1,1,no-less-than,6,4,red,yellow,2,0,2,0,4,1,3,0,-2,FALSE,Inferior,100,27147,no
4,40,M,N,1,2,more-than,4,3,blue,red,6,0,6,0,5,0,3,1,-1,FALSE,Inferior,100,11615,no
4,40,M,N,1,3,exactly,4,5,red,blue,1,1,6,0,4,1,5,0,1,?,Superior,100,6091,yes
4,40,M,N,1,4,more-than,6,6,blue,red,3,1,1,0,3,1,5,0,0,FALSE,Equal,0,7276,no
4,40,M,N,1,5,less-than,6,6,green,blue,1,1,1,1,1,0,4,1,0,FALSE,Equal,53.52480418,8744,no
4,40,M,N,1,6,less-than,5,5,green,yellow,1,1,1,1,3,1,6,0,0,FALSE,Equal,0,15668,no
4,40,M,N,1,7,exactly,5,8,red,green,4,0,3,1,2,1,3,1,3,?,Superior,0,4840,no
4,40,M,N,1,8,more-than,5,7,green,black,6,0,4,1,3,1,5,0,2,TRUE,Superior,100,7924,no
4,40,M,N,1,9,no-more-than,6,8,blue,black,5,0,3,1,5,1,4,0,2,FALSE,Superior,100,10845,no
4,40,M,N,1,10,more-than,4,4,green,yellow,1,0,1,1,2,0,3,1,0,FALSE,Equal,0,6038,no
4,40,M,N,1,11,exactly,6,7,green,yellow,6,1,4,0,5,0,1,1,1,?,Superior,0,5965,yes
4,40,M,N,1,12,less-than,5,4,blue,green,3,0,1,0,6,1,5,0,-1,TRUE,Inferior,52.74151436,14299,no
4,40,M,N,1,13,no-more-than,5,4,green,red,5,0,4,0,4,0,2,1,-1,TRUE,Inferior,100,10504,no
4,40,M,N,1,14,exactly,4,4,green,black,2,1,1,1,2,0,1,1,0,TRUE,Equal,100,6411,no
4,40,M,N,1,15,no-less-than,4,7,green,red,3,1,3,1,1,1,2,0,3,TRUE,Superior,50.91383812,10847,no
4,40,M,N,1,16,no-more-than,5,5,green,blue,2,1,3,1,6,0,2,0,0,TRUE,Equal,49.8694517,8054,no
4,40,M,N,1,17,exactly,6,5,red,yellow,3,0,2,0,2,0,6,1,-1,FALSE,Inferior,100,4349,no
4,40,M,N,1,18,no-less-than,5,8,green,blue,3,1,1,0,3,1,2,1,3,TRUE,Superior,0,8774,no
4,40,M,N,1,19,exactly,5,3,red,green,4,0,1,0,6,1,2,0,-2,FALSE,Inferior,0,3550,no
4,40,M,N,1,20,exactly,4,2,red,blue,5,0,3,0,1,1,6,0,-2,FALSE,Inferior,0,2871,no
4,40,M,N,1,21,no-less-than,4,5,blue,black,1,1,1,1,6,0,3,1,1,TRUE,Superior,100,5634,no
4,40,M,N,1,22,no-more-than,4,7,red,blue,2,1,2,1,3,1,6,0,3,FALSE,Superior,0,11610,no
4,40,M,N,1,23,no-more-than,4,4,blue,yellow,1,1,4,0,1,1,2,1,0,TRUE,Equal,0,3914,no
4,40,M,N,1,24,no-less-than,4,2,red,green,6,0,6,1,6,0,1,0,-2,FALSE,Inferior,51.95822454,15696,no
4,40,M,N,1,25,no-more-than,5,2,blue,yellow,5,0,2,1,5,0,4,0,-3,TRUE,Inferior,0,5508,no
4,40,M,N,1,26,more-than,5,4,blue,red,5,0,2,0,5,0,2,1,-1,FALSE,Inferior,0,8000,no
4,40,M,N,1,27,no-more-than,5,6,green,red,4,1,3,0,1,1,1,1,1,FALSE,Superior,100,7071,no
4,40,M,N,1,28,exactly,6,8,red,black,4,0,2,1,6,1,5,0,2,?,Superior,0,8353,yes
4,40,M,N,1,29,more-than,5,3,green,blue,3,0,4,1,6,0,3,0,-2,FALSE,Inferior,100,9399,no
4,40,M,N,1,30,exactly,5,5,red,blue,6,0,1,0,3,0,5,1,0,TRUE,Equal,100,7873,yes
4,40,M,N,1,31,less-than,4,2,red,black,2,0,4,0,2,1,3,0,-2,TRUE,Inferior,0,5744,no
4,40,M,N,1,32,less-than,6,8,blue,black,6,0,2,1,4,1,2,1,2,FALSE,Superior,0,5080,no
4,40,M,N,1,33,less-than,5,6,green,black,1,1,1,1,1,0,4,1,1,FALSE,Superior,49.8694517,20609,no
4,40,M,N,1,34,exactly,4,6,red,green,4,1,3,0,5,0,2,1,2,?,Superior,0,6377,yes
4,40,M,N,1,35,no-more-than,5,8,red,yellow,4,0,3,1,1,1,4,1,3,FALSE,Superior,0,7217,no
4,40,M,N,1,36,exactly,5,7,green,blue,3,0,2,1,3,1,2,1,2,?,Superior,0,7956,no
4,40,M,N,1,37,no-less-than,6,7,blue,red,3,1,5,0,1,1,3,1,1,TRUE,Superior,0,19474,no
4,40,M,N,1,38,exactly,5,2,red,black,4,1,6,0,6,0,3,0,-3,FALSE,Inferior,0,4208,no
4,40,M,N,1,39,exactly,5,8,green,red,4,0,3,0,5,1,3,1,3,?,Superior,0,7781,yes
4,40,M,N,1,40,no-more-than,4,6,red,green,1,0,2,1,2,1,2,1,2,FALSE,Superior,0,6237,no
4,40,M,N,1,41,no-more-than,6,9,green,blue,5,1,5,0,4,1,6,0,3,FALSE,Superior,0,7151,no
4,40,M,N,1,42,less-than,6,7,blue,black,6,0,1,1,3,1,3,1,1,FALSE,Superior,0,6757,no
4,40,M,N,1,43,less-than,5,7,green,red,6,1,3,0,1,1,6,0,2,FALSE,Superior,0,5819,no
4,40,M,N,1,44,no-less-than,5,4,green,yellow,4,0,4,0,6,1,4,0,-1,FALSE,Inferior,100,19196,no
4,40,M,N,1,45,more-than,5,5,green,blue,1,1,6,0,1,1,3,1,0,FALSE,Equal,0,5407,no
4,40,M,N,1,46,no-more-than,6,4,red,blue,6,0,6,1,1,0,6,0,-2,TRUE,Inferior,100,5102,no
4,40,M,N,1,47,more-than,5,8,blue,red,3,0,4,1,4,1,2,0,3,TRUE,Superior,100,6755,no
4,40,M,N,1,48,no-more-than,4,1,green,blue,2,1,6,0,4,0,1,0,-3,TRUE,Inferior,100,8179,no
4,40,M,N,1,49,no-less-than,4,1,red,blue,4,0,5,0,1,1,5,0,-3,FALSE,Inferior,0,6347,no
4,40,M,N,1,50,no-more-than,4,3,blue,yellow,2,0,1,0,1,1,5,0,-1,TRUE,Inferior,0,3879,no
4,40,M,N,1,51,less-than,6,3,green,black,5,1,1,0,3,0,1,0,-3,TRUE,Inferior,100,13186,no
4,40,M,N,1,52,no-more-than,6,6,red,black,3,0,3,1,3,0,3,1,0,TRUE,Equal,0,15790,no
4,40,M,N,1,53,exactly,5,4,red,black,3,0,5,0,5,0,3,1,-1,FALSE,Inferior,0,5816,no
4,40,M,N,1,54,no-less-than,6,8,green,black,4,1,4,1,3,0,1,0,2,TRUE,Superior,0,46532,no
4,40,M,N,1,55,exactly,5,7,blue,yellow,2,1,3,0,5,1,6,0,2,?,Superior,0,7375,yes
4,40,M,N,1,56,exactly,6,6,green,red,2,1,6,0,1,0,4,1,0,TRUE,Equal,100,8823,no
4,40,M,N,1,57,exactly,5,5,red,yellow,4,0,4,1,1,1,6,0,0,TRUE,Equal,100,2683,no
4,40,M,N,1,58,less-than,5,2,green,black,4,0,6,0,2,1,1,0,-3,TRUE,Inferior,100,4784,no
4,40,M,N,1,59,no-more-than,6,7,blue,black,4,1,1,0,3,1,1,0,1,FALSE,Superior,0,4400,no
4,40,M,N,1,60,exactly,6,9,red,yellow,3,0,6,0,4,1,5,1,3,?,Superior,0,3981,no
4,40,M,N,1,61,more-than,4,7,red,black,5,0,1,1,3,1,3,1,3,TRUE,Superior,50.1305483,2610,no
4,40,M,N,1,62,more-than,6,9,red,blue,2,1,5,1,3,0,2,1,3,TRUE,Superior,100,6407,no
4,40,M,N,1,63,more-than,5,6,blue,black,2,1,4,1,3,0,1,0,1,TRUE,Superior,100,5233,no
4,40,M,N,1,64,no-more-than,5,7,blue,black,2,0,1,1,6,1,3,0,2,FALSE,Superior,0,5629,no
4,40,M,N,1,65,exactly,5,6,blue,yellow,5,1,1,1,3,0,2,0,1,?,Superior,0,4037,yes
4,40,M,N,1,66,exactly,6,8,green,yellow,4,1,1,1,6,0,3,1,2,?,Superior,0,4423,no
4,40,M,N,1,67,no-less-than,5,2,red,black,3,1,6,0,3,0,4,0,-3,FALSE,Inferior,100,4960,no
4,40,M,N,1,68,no-more-than,4,5,green,blue,6,0,1,1,2,1,2,1,1,FALSE,Superior,0,17763,no
4,40,M,N,1,69,no-more-than,4,2,red,green,3,0,4,1,3,0,3,0,-2,TRUE,Inferior,50.1305483,1913,no
4,40,M,N,1,70,exactly,6,6,blue,black,3,0,6,0,6,1,4,0,0,TRUE,Equal,0,5899,yes
4,40,M,N,1,71,more-than,6,8,green,blue,4,1,4,0,4,1,2,0,2,TRUE,Superior,100,6226,no
4,40,M,N,1,72,exactly,5,6,blue,black,2,1,2,1,5,0,2,1,1,?,Superior,0,3012,no
4,40,M,N,1,73,no-less-than,6,5,green,black,4,0,4,0,3,1,6,0,-1,FALSE,Inferior,100,11915,no
4,40,M,N,1,74,exactly,6,6,red,blue,3,0,1,1,4,1,1,1,0,TRUE,Equal,100,10596,no
4,40,M,N,1,75,no-less-than,4,4,green,red,6,0,2,1,1,0,2,1,0,TRUE,Equal,100,10040,no
4,40,M,N,1,76,exactly,4,3,blue,yellow,5,1,5,0,4,0,4,0,-1,FALSE,Inferior,0,2334,no
4,40,M,N,1,77,more-than,6,3,blue,green,2,0,5,0,1,0,2,1,-3,FALSE,Inferior,0,3927,no
4,40,M,N,1,78,no-less-than,5,6,red,blue,2,1,1,0,2,1,2,1,1,TRUE,Superior,0,4630,no
4,40,M,N,1,79,exactly,5,5,green,black,1,1,6,0,2,1,2,1,0,TRUE,Equal,100,6432,no
4,40,M,N,1,80,exactly,4,4,green,black,3,0,2,0,4,1,1,0,0,TRUE,Equal,100,9235,yes
4,40,M,N,1,81,less-than,4,5,blue,black,6,0,2,1,2,1,1,1,1,FALSE,Superior,0,4578,no
4,40,M,N,1,82,more-than,5,2,green,blue,2,0,5,0,6,0,2,1,-3,FALSE,Inferior,100,5420,no
4,40,M,N,1,83,exactly,6,7,blue,red,6,0,6,0,5,1,2,1,1,?,Superior,0,5526,no
4,40,M,N,1,84,more-than,6,5,red,green,3,0,5,0,5,0,5,1,-1,FALSE,Inferior,0,6994,no
4,40,M,N,1,85,no-less-than,5,5,green,black,2,0,2,0,3,1,2,1,0,TRUE,Equal,100,13344,no
4,40,M,N,1,86,exactly,4,7,red,yellow,2,1,5,0,3,1,2,1,3,?,Superior,0,4084,no
4,40,M,N,1,87,no-less-than,6,9,green,yellow,4,0,2,1,2,1,5,1,3,TRUE,Superior,100,7823,no
4,40,M,N,1,88,more-than,6,4,red,black,4,0,2,0,6,0,3,1,-2,FALSE,Inferior,100,6363,no
4,40,M,N,1,89,no-more-than,6,5,green,blue,1,0,1,0,3,1,5,0,-1,TRUE,Inferior,100,8945,no
4,40,M,N,1,90,no-less-than,6,6,green,blue,5,1,5,0,2,0,1,1,0,TRUE,Equal,100,8004,no
4,40,M,N,1,91,exactly,6,9,green,red,4,0,6,0,6,1,3,1,3,?,Superior,0,6387,yes
4,40,M,N,1,92,no-less-than,6,3,red,black,3,0,1,0,4,0,5,1,-3,FALSE,Inferior,100,6974,no
4,40,M,N,1,93,no-less-than,4,6,blue,red,3,1,1,0,3,1,2,0,2,TRUE,Superior,100,11224,no
4,40,M,N,1,94,less-than,6,9,blue,red,4,1,5,1,5,0,3,0,3,FALSE,Superior,0,22864,no
4,40,M,N,1,95,exactly,4,4,blue,yellow,2,0,2,1,4,0,2,1,0,TRUE,Equal,0,2772,no
4,40,M,N,1,96,exactly,4,7,green,yellow,3,1,6,0,4,1,6,0,3,?,Superior,0,5028,yes
4,40,M,N,1,97,no-less-than,5,3,green,black,3,1,2,0,6,0,6,0,-2,FALSE,Inferior,0,8542,no
4,40,M,N,1,98,less-than,4,3,blue,yellow,1,0,4,0,2,1,2,0,-1,TRUE,Inferior,100,7238,no
4,40,M,N,1,99,less-than,4,4,red,blue,6,0,2,1,2,1,4,0,0,FALSE,Equal,0,5229,no
4,40,M,N,1,100,less-than,5,8,green,blue,3,1,3,1,2,1,5,0,3,FALSE,Superior,100,5048,no
4,40,M,N,1,101,less-than,6,4,green,black,3,0,5,0,3,1,4,0,-2,TRUE,Inferior,99.73890339,13271,no
4,40,M,N,1,102,exactly,4,6,red,blue,1,0,1,1,3,1,2,1,2,?,Superior,0,3606,no
4,40,M,N,1,103,less-than,5,3,blue,red,3,0,6,0,3,0,5,1,-2,TRUE,Inferior,0,11212,no
4,40,M,N,1,104,no-less-than,5,7,red,yellow,2,1,5,0,2,1,3,1,2,TRUE,Superior,100,4149,no
4,40,M,N,1,105,exactly,6,4,blue,yellow,3,0,5,0,1,1,5,0,-2,FALSE,Inferior,0,3778,no
4,40,M,N,1,106,less-than,4,1,red,yellow,4,1,4,0,6,0,1,0,-3,TRUE,Inferior,0,9444,no
4,40,M,N,1,107,more-than,4,2,green,yellow,5,0,2,1,4,0,2,0,-2,FALSE,Inferior,0,8691,no
4,40,M,N,1,108,more-than,6,7,blue,black,2,1,1,0,1,0,5,1,1,TRUE,Superior,100,4408,no
4,40,M,N,1,109,less-than,4,7,blue,yellow,6,0,1,1,3,1,3,1,3,FALSE,Superior,0,3521,no
4,40,M,N,1,110,less-than,6,5,green,red,1,0,3,1,3,0,2,0,-1,TRUE,Inferior,100,8883,no
4,40,M,N,1,111,less-than,4,6,red,blue,5,0,2,1,2,1,2,1,2,FALSE,Superior,0,3055,no
4,40,M,N,1,112,no-more-than,5,3,green,red,3,0,1,0,1,0,6,1,-2,TRUE,Inferior,100,10444,no
4,40,M,N,1,113,more-than,4,6,green,black,2,1,2,1,2,0,2,1,2,TRUE,Superior,100,8524,no
4,40,M,N,1,114,no-more-than,6,3,green,black,5,0,1,1,1,0,1,0,-3,TRUE,Inferior,0,3426,no
4,40,M,N,1,115,more-than,4,5,red,yellow,2,1,3,0,1,1,2,1,1,TRUE,Superior,100,3417,no
4,40,M,N,1,116,exactly,4,1,blue,black,5,0,4,0,5,1,5,0,-3,FALSE,Inferior,0,3407,no
4,40,M,N,1,117,exactly,4,5,red,green,2,1,4,0,2,1,1,1,1,?,Superior,0,7765,no
4,40,M,N,1,118,no-less-than,4,3,green,yellow,1,0,6,1,5,0,3,0,-1,FALSE,Inferior,100,7738,no
4,40,M,N,1,119,exactly,6,3,green,red,1,1,5,0,5,0,3,0,-3,FALSE,Inferior,0,5543,no
4,40,M,N,1,120,more-than,4,1,red,yellow,3,0,4,0,5,1,5,0,-3,FALSE,Inferior,100,3889,no
4,40,M,N,2,1,less-than,5,7,red,green,2,1,2,1,3,1,6,0,2,FALSE,Superior,0,6293,no
4,40,M,N,2,2,exactly,4,4,blue,green,6,0,2,1,2,1,3,0,0,TRUE,Equal,100,3712,no
4,40,M,N,2,3,no-more-than,4,6,green,black,2,1,3,1,1,1,2,0,2,FALSE,Superior,0,6956,no
4,40,M,N,2,4,less-than,4,4,red,blue,2,1,1,0,2,1,2,0,0,FALSE,Equal,0,6397,no
4,40,M,N,2,5,more-than,6,8,red,blue,5,0,3,1,2,1,3,1,2,TRUE,Superior,100,4367,no
4,40,M,N,2,6,no-less-than,4,2,green,blue,5,0,1,0,2,1,5,0,-2,FALSE,Inferior,0,6877,no
4,40,M,N,2,7,more-than,5,3,green,yellow,2,0,6,0,3,1,3,0,-2,FALSE,Inferior,0,4141,no
4,40,M,N,2,8,more-than,5,8,red,blue,4,0,2,1,1,0,6,1,3,TRUE,Superior,100,4313,no
4,40,M,N,2,9,less-than,5,4,blue,yellow,6,0,1,1,4,0,1,0,-1,TRUE,Inferior,0,4899,no
4,40,M,N,2,10,no-more-than,6,5,red,black,5,1,3,0,5,0,5,0,-1,TRUE,Inferior,0,4901,no
4,40,M,N,2,11,no-less-than,5,2,green,blue,3,0,5,0,4,1,1,0,-3,FALSE,Inferior,100,6589,no
4,40,M,N,2,12,no-less-than,5,4,blue,black,1,0,4,0,1,0,1,1,-1,FALSE,Inferior,0,15518,no
4,40,M,N,2,13,more-than,5,7,blue,red,2,0,2,0,1,1,6,1,2,TRUE,Superior,100,5183,no
4,40,M,N,2,14,more-than,4,6,green,black,2,1,2,1,1,0,2,1,2,TRUE,Superior,100,8117,no
4,40,M,N,2,15,no-more-than,6,7,blue,red,3,1,3,0,1,1,3,1,1,FALSE,Superior,0,7830,no
4,40,M,N,2,16,less-than,6,3,green,blue,1,0,5,0,2,0,6,1,-3,TRUE,Inferior,1.305483029,4585,no
4,40,M,N,2,17,no-less-than,4,6,blue,black,2,1,2,1,2,1,4,0,2,TRUE,Superior,100,6003,no
4,40,M,N,2,18,no-more-than,4,7,green,yellow,3,1,2,1,4,0,2,1,3,FALSE,Superior,100,20102,no
4,40,M,N,2,19,no-more-than,5,3,red,yellow,5,1,4,0,1,0,6,0,-2,TRUE,Inferior,100,5731,no
4,40,M,N,2,20,exactly,6,4,green,yellow,1,0,2,0,6,0,4,1,-2,FALSE,Inferior,0,5409,no
4,40,M,N,2,21,no-more-than,6,6,blue,green,2,0,4,0,4,1,2,1,0,TRUE,Equal,100,10738,no
4,40,M,N,2,22,exactly,5,5,green,black,3,0,1,0,5,1,3,0,0,TRUE,Equal,100,6615,yes
4,40,M,N,2,23,less-than,4,5,green,black,1,0,2,1,1,1,2,1,1,FALSE,Superior,0,6227,no
4,40,M,N,2,24,exactly,5,5,blue,green,1,1,1,1,3,1,6,0,0,TRUE,Equal,100,3915,no
4,40,M,N,2,25,no-more-than,5,7,blue,red,5,0,1,1,2,1,4,1,2,FALSE,Superior,0,7740,no
4,40,M,N,2,26,no-more-than,6,8,red,green,2,1,3,0,4,1,2,1,2,FALSE,Superior,0,7660,no
4,40,M,N,2,27,no-more-than,5,6,green,red,3,1,4,0,4,0,3,1,1,FALSE,Superior,0,12110,no
4,40,M,N,2,28,exactly,6,3,red,green,5,0,4,0,4,1,2,0,-3,FALSE,Inferior,0,4702,no
4,40,M,N,2,29,exactly,5,8,blue,green,3,1,5,1,6,0,3,0,3,?,Superior,0,4486,yes
4,40,M,N,2,30,more-than,4,3,red,blue,5,0,1,1,3,0,6,0,-1,FALSE,Inferior,0,4545,no
4,40,M,N,2,31,exactly,4,6,red,green,3,1,6,0,3,1,6,0,2,?,Superior,0,5141,no
4,40,M,N,2,32,less-than,4,6,blue,black,2,1,3,0,3,1,1,1,2,FALSE,Superior,0,4279,no
4,40,M,N,2,33,exactly,4,5,blue,black,5,0,2,0,1,1,4,1,1,?,Superior,0,4015,yes
4,40,M,N,2,34,no-more-than,4,5,blue,red,2,1,2,1,1,1,3,0,1,FALSE,Superior,0,5005,no
4,40,M,N,2,35,exactly,6,7,blue,black,4,1,1,0,5,0,3,1,1,?,Superior,0,4080,no
4,40,M,N,2,36,exactly,5,6,blue,black,6,0,5,1,1,0,1,1,1,?,Superior,0,5289,yes
4,40,M,N,2,37,more-than,6,4,red,yellow,6,0,3,0,6,1,5,0,-2,FALSE,Inferior,0,4137,no
4,40,M,N,2,38,exactly,5,2,blue,yellow,5,0,3,0,6,1,1,0,-3,FALSE,Inferior,0,3482,no
4,40,M,N,2,39,exactly,4,1,red,blue,3,0,6,0,4,0,4,1,-3,FALSE,Inferior,100,3659,no
4,40,M,N,2,40,no-less-than,6,3,green,yellow,5,0,3,0,6,1,1,0,-3,FALSE,Inferior,100,5902,no
4,40,M,N,2,41,less-than,5,6,red,green,6,0,4,0,3,1,3,1,1,FALSE,Superior,0,9500,no
4,40,M,N,2,42,no-less-than,4,1,red,green,2,0,5,0,3,1,2,0,-3,FALSE,Inferior,0,6541,no
4,40,M,N,2,43,exactly,4,4,blue,yellow,1,1,1,0,1,1,2,1,0,TRUE,Equal,0,3433,no
4,40,M,N,2,44,exactly,4,7,green,blue,6,0,2,1,2,1,3,1,3,?,Superior,0,4202,no
4,40,M,N,2,45,no-more-than,5,2,blue,green,3,0,6,0,1,0,2,1,-3,TRUE,Inferior,100,5539,no
4,40,M,N,2,46,more-than,6,9,blue,black,2,1,1,0,5,1,2,1,3,TRUE,Superior,50.1305483,12043,no
4,40,M,N,2,47,exactly,6,8,blue,yellow,6,0,4,1,2,1,2,1,2,?,Superior,0,9004,no
4,40,M,N,2,48,exactly,6,8,blue,yellow,2,1,6,1,3,0,3,0,2,?,Superior,0,3780,yes
4,40,M,N,2,49,exactly,6,6,red,black,6,1,2,0,1,0,6,0,0,TRUE,Equal,0,4592,yes
4,40,M,N,2,50,exactly,4,6,green,yellow,4,1,2,1,6,0,3,0,2,?,Superior,0,5853,yes
4,40,M,N,2,51,more-than,4,1,red,black,5,0,3,0,1,0,5,1,-3,FALSE,Inferior,100,3032,no
4,40,M,N,2,52,less-than,4,3,red,black,6,1,6,0,5,0,3,0,-1,TRUE,Inferior,0,5443,no
4,40,M,N,2,53,no-less-than,5,8,green,red,3,1,3,1,2,1,2,0,3,TRUE,Superior,100,6706,no
4,40,M,N,2,54,exactly,5,6,red,yellow,4,0,3,1,3,1,3,0,1,?,Superior,0,2809,no
4,40,M,N,2,55,no-more-than,4,3,green,black,3,1,3,0,1,0,6,0,-1,TRUE,Inferior,100,6979,no
4,40,M,N,2,56,more-than,4,2,blue,black,2,0,3,0,1,0,1,1,-2,FALSE,Inferior,0,4437,no
4,40,M,N,2,57,exactly,4,5,red,black,1,1,3,1,1,1,4,0,1,?,Superior,0,3542,no
4,40,M,N,2,58,no-less-than,6,4,blue,black,2,0,1,0,5,1,3,0,-2,FALSE,Inferior,0,9043,no
4,40,M,N,2,59,exactly,4,2,red,blue,3,0,5,1,2,0,4,0,-2,FALSE,Inferior,0,3858,no
4,40,M,N,2,60,more-than,4,5,blue,green,2,1,4,0,5,0,3,1,1,TRUE,Superior,100,7343,no
4,40,M,N,2,61,no-more-than,4,1,green,red,3,0,1,1,2,0,4,0,-3,TRUE,Inferior,100,9359,no
4,40,M,N,2,62,exactly,6,7,green,blue,6,1,1,1,2,0,3,0,1,?,Superior,0,4196,yes
4,40,M,N,2,63,exactly,4,7,blue,yellow,6,0,4,1,3,1,3,0,3,?,Superior,0,5001,yes
4,40,M,N,2,64,no-more-than,5,5,red,black,1,1,2,1,2,1,6,0,0,TRUE,Equal,0,12301,no
4,40,M,N,2,65,no-less-than,4,5,red,green,1,1,3,0,2,1,2,1,1,TRUE,Superior,0,4581,no
4,40,M,N,2,66,more-than,5,2,blue,green,3,0,4,0,1,0,1,1,-3,FALSE,Inferior,0,5081,no
4,40,M,N,2,67,no-more-than,5,4,red,black,6,0,6,0,3,1,6,0,-1,TRUE,Inferior,0,7751,no
4,40,M,N,2,68,less-than,5,8,green,black,3,0,6,0,6,1,2,1,3,FALSE,Superior,0,9813,no
4,40,M,N,2,69,less-than,4,7,blue,green,6,0,2,1,2,1,3,1,3,FALSE,Superior,0,7913,no
4,40,M,N,2,70,no-more-than,4,4,blue,green,3,0,1,0,2,1,2,1,0,TRUE,Equal,100,4926,no
4,40,M,N,2,71,less-than,5,3,red,black,4,0,5,1,6,0,1,0,-2,TRUE,Inferior,0,5292,no
4,40,M,N,2,72,exactly,5,7,blue,green,4,0,2,1,1,0,5,1,2,?,Superior,0,5115,yes
4,40,M,N,2,73,more-than,6,3,red,yellow,3,0,1,1,1,0,3,0,-3,FALSE,Inferior,0,3394,no
4,40,M,N,2,74,exactly,6,9,blue,red,5,0,6,1,3,1,1,0,3,?,Superior,0,5864,yes
4,40,M,N,2,75,no-less-than,6,8,red,blue,3,1,2,1,4,0,3,1,2,TRUE,Superior,100,5743,no
4,40,M,N,2,76,no-less-than,6,6,blue,red,3,1,2,0,6,0,3,1,0,TRUE,Equal,100,5104,no
4,40,M,N,2,77,no-more-than,6,3,green,yellow,6,0,4,0,4,0,5,1,-3,TRUE,Inferior,100,5971,no
4,40,M,N,2,78,more-than,6,7,green,blue,4,1,1,1,2,1,5,0,1,TRUE,Superior,100,4676,no
4,40,M,N,2,79,no-less-than,4,7,blue,yellow,2,1,2,1,3,1,2,0,3,TRUE,Superior,100,4050,no
4,40,M,N,2,80,more-than,6,5,red,blue,4,1,3,0,6,0,6,0,-1,FALSE,Inferior,0,6131,no
4,40,M,N,2,81,more-than,5,4,blue,green,2,0,1,0,4,0,1,1,-1,FALSE,Inferior,0,6963,no
4,40,M,N,2,82,exactly,5,5,blue,yellow,3,1,1,1,1,1,2,0,0,TRUE,Equal,0,3967,no
4,40,M,N,2,83,no-less-than,5,3,green,blue,3,1,6,0,2,0,2,0,-2,FALSE,Inferior,0,4335,no
4,40,M,N,2,84,more-than,6,6,green,yellow,4,1,1,1,4,0,1,1,0,FALSE,Equal,0,5225,no
4,40,M,N,2,85,exactly,5,3,blue,red,3,1,1,0,4,0,2,0,-2,FALSE,Inferior,0,4256,no
4,40,M,N,2,86,less-than,6,9,red,blue,2,1,5,1,5,0,2,1,3,FALSE,Superior,0,4425,no
4,40,M,N,2,87,no-less-than,6,5,green,yellow,1,0,4,0,1,0,1,1,-1,FALSE,Inferior,0,12079,no
4,40,M,N,2,88,less-than,5,5,red,black,3,0,1,1,4,1,2,0,0,FALSE,Equal,0,11742,no
4,40,M,N,2,89,less-than,6,5,red,blue,4,0,6,1,6,0,3,0,-1,TRUE,Inferior,0,7583,no
4,40,M,N,2,90,no-more-than,5,8,red,yellow,3,1,4,0,2,1,3,1,3,FALSE,Superior,0,6996,no
4,40,M,N,2,91,exactly,5,7,green,black,4,0,4,1,3,1,2,0,2,?,Superior,0,4828,no
4,40,M,N,2,92,exactly,4,3,red,black,2,0,5,0,1,0,3,1,-1,FALSE,Inferior,0,3031,no
4,40,M,N,2,93,less-than,6,6,red,green,1,1,4,0,1,1,4,1,0,FALSE,Equal,0,8439,no
4,40,M,N,2,94,exactly,6,6,green,red,2,1,2,1,2,1,6,0,0,TRUE,Equal,100,4834,no
4,40,M,N,2,95,no-more-than,4,2,blue,yellow,5,0,4,0,2,0,2,1,-2,TRUE,Inferior,0,5641,no
4,40,M,N,2,96,no-less-than,6,7,green,blue,3,1,4,1,6,0,2,0,1,TRUE,Superior,100,9989,no
4,40,M,N,2,97,no-more-than,6,9,blue,black,4,1,5,1,4,0,4,0,3,FALSE,Superior,0,4324,no
4,40,M,N,2,98,exactly,5,4,red,blue,6,0,6,0,2,0,1,1,-1,FALSE,Inferior,0,3064,no
4,40,M,N,2,99,exactly,6,6,blue,red,5,0,5,1,1,1,4,0,0,TRUE,Equal,100,6066,no
4,40,M,N,2,100,less-than,4,1,red,yellow,6,1,2,0,2,0,2,0,-3,TRUE,Inferior,0,3275,no
4,40,M,N,2,101,less-than,4,2,blue,yellow,1,1,3,0,6,0,4,0,-2,TRUE,Inferior,0,3927,no
4,40,M,N,2,102,exactly,4,4,red,blue,1,0,4,1,5,0,4,0,0,TRUE,Equal,100,5090,yes
4,40,M,N,2,103,more-than,4,7,green,black,2,1,3,0,3,1,2,1,3,TRUE,Superior,100,6407,no
4,40,M,N,2,104,less-than,6,7,green,black,1,1,3,1,3,1,1,0,1,FALSE,Superior,0,6246,no
4,40,M,N,2,105,less-than,6,8,red,black,3,0,5,1,2,0,3,1,2,FALSE,Superior,0,8734,no
4,40,M,N,2,106,exactly,6,5,red,green,4,0,3,0,3,0,4,1,-1,FALSE,Inferior,0,5463,no
4,40,M,N,2,107,no-less-than,4,4,red,blue,4,0,1,1,2,1,1,1,0,TRUE,Equal,0,5374,no
4,40,M,N,2,108,no-less-than,6,9,blue,red,5,1,5,0,2,1,2,1,3,TRUE,Superior,100,5663,no
4,40,M,N,2,109,no-less-than,5,6,red,black,6,0,4,0,3,1,3,1,1,TRUE,Superior,100,12322,no
4,40,M,N,2,110,no-less-than,5,7,blue,green,3,0,1,1,2,1,4,1,2,TRUE,Superior,100,5339,no
4,40,M,N,2,111,exactly,5,8,red,black,1,1,3,0,3,1,4,1,3,?,Superior,0,3519,no
4,40,M,N,2,112,more-than,5,5,blue,red,2,1,3,0,2,1,1,1,0,FALSE,Equal,0,5258,no
4,40,M,N,2,113,no-less-than,4,3,blue,black,6,1,5,0,1,0,4,0,-1,FALSE,Inferior,100,9938,no
4,40,M,N,2,114,more-than,4,4,blue,green,3,0,3,1,1,1,4,0,0,FALSE,Equal,0,6980,no
4,40,M,N,2,115,less-than,5,2,red,green,1,0,4,0,5,1,1,0,-3,TRUE,Inferior,0,6732,no
4,40,M,N,2,116,no-more-than,6,4,red,black,3,0,1,1,5,0,1,0,-2,TRUE,Inferior,0,5116,no
4,40,M,N,2,117,less-than,6,4,green,black,4,0,6,0,2,0,5,1,-2,TRUE,Inferior,100,5688,no
4,40,M,N,2,118,exactly,6,9,red,black,4,1,2,0,3,1,2,1,3,?,Superior,0,10829,no
4,40,M,N,2,119,no-less-than,5,5,red,blue,1,1,6,0,2,1,2,1,0,TRUE,Equal,100,6913,no
4,40,M,N,2,120,more-than,5,6,red,black,4,1,6,0,2,1,3,0,1,TRUE,Superior,100,3930,no
4,40,M,N,3,1,only2,6,7,blue,black,3,1,1,0,4,1,3,0,1,FALSE,Superior,0,6772,no
4,40,M,N,3,2,only2,6,6,green,red,2,1,5,0,2,1,2,1,0,TRUE,Equal,100,6384,no
4,40,M,N,3,3,only2,4,4,red,black,4,0,2,1,1,1,1,1,0,TRUE,Equal,0,5011,no
4,40,M,N,3,4,only1,4,7,green,blue,3,1,3,1,1,0,1,1,3,FALSE,Superior,0,5463,no
4,40,M,N,3,5,only1,5,6,blue,red,4,1,1,1,1,1,2,0,1,FALSE,Superior,0,3534,no
4,40,M,N,3,6,only2,5,8,green,yellow,4,1,4,1,1,0,3,0,3,FALSE,Superior,0,4653,no
4,40,M,N,3,7,only2,6,6,blue,red,2,1,2,1,5,0,2,1,0,TRUE,Equal,100,5783,no
4,40,M,N,3,8,only1,4,4,blue,red,1,1,3,1,4,0,2,0,0,TRUE,Equal,0,3036,no
4,40,M,N,3,9,only1,6,6,red,blue,4,1,6,0,1,1,1,1,0,TRUE,Equal,100,3103,no
4,40,M,N,3,10,only1,6,8,green,red,3,1,5,1,1,0,4,0,2,FALSE,Superior,0,4040,no
4,40,M,N,3,11,only2,5,5,blue,green,4,0,2,1,3,1,4,0,0,TRUE,Equal,100,8447,no
4,40,M,N,3,12,only1,6,6,blue,black,1,0,6,0,4,1,2,1,0,TRUE,Equal,100,2899,no
4,40,M,N,3,13,only1,4,6,blue,black,2,1,2,1,5,0,2,1,2,FALSE,Superior,0,2041,no
4,40,M,N,3,14,only1,5,5,red,black,1,1,2,1,4,0,2,1,0,TRUE,Equal,0,4176,no
4,40,M,N,3,15,only2,5,5,red,black,1,1,2,1,2,1,4,0,0,TRUE,Equal,0,3853,no
4,40,M,N,3,16,only1,4,4,blue,red,1,0,2,1,2,1,4,0,0,TRUE,Equal,100,2400,no
4,40,M,N,3,17,only2,4,6,red,black,2,1,2,1,5,0,2,1,2,FALSE,Superior,0,5226,no
4,40,M,N,3,18,only2,4,4,blue,black,2,1,3,0,2,1,3,0,0,TRUE,Equal,100,3602,no
4,40,M,N,3,19,only2,6,9,red,black,5,1,2,0,4,0,4,1,3,FALSE,Superior,0,3283,no
4,40,M,N,3,20,only2,5,7,green,yellow,4,1,6,0,1,0,3,1,2,FALSE,Superior,0,8667,no
4,40,M,N,3,21,only2,6,8,red,green,5,0,3,1,5,0,5,1,2,FALSE,Superior,0,5596,no
4,40,M,N,3,22,only1,5,7,red,green,1,1,2,0,4,1,2,1,2,FALSE,Superior,0,6179,no
4,40,M,N,3,23,only1,4,4,green,yellow,2,0,3,0,2,1,2,1,0,TRUE,Equal,100,3897,no
4,40,M,N,3,24,only2,6,6,blue,red,4,1,1,1,5,0,1,1,0,TRUE,Equal,100,6132,no
4,40,M,N,3,25,only2,4,7,blue,green,3,1,3,1,4,0,1,1,3,FALSE,Superior,0,3402,no
4,40,M,N,3,26,only2,5,5,blue,red,4,0,6,0,4,1,1,1,0,TRUE,Equal,100,3525,no
4,40,M,N,3,27,only1,5,8,blue,yellow,1,0,5,0,4,1,4,1,3,FALSE,Superior,0,2942,no
4,40,M,N,3,28,only1,5,5,red,blue,3,1,5,0,5,0,2,1,0,TRUE,Equal,100,3063,no
4,40,M,N,3,29,only1,5,5,red,green,3,0,2,1,3,1,3,0,0,TRUE,Equal,100,6977,no
4,40,M,N,3,30,only1,6,7,blue,yellow,2,1,4,0,5,1,4,0,1,FALSE,Superior,0,3620,no
4,40,M,N,3,31,only2,5,6,green,red,6,0,5,0,3,1,3,1,1,FALSE,Superior,0,5691,no
4,40,M,N,3,32,only1,6,6,red,green,2,0,4,1,1,1,1,1,0,TRUE,Equal,100,6171,no
4,40,M,N,3,33,only1,6,9,green,blue,6,0,3,1,4,1,2,1,3,FALSE,Superior,0,4331,no
4,40,M,N,3,34,only2,4,4,red,black,1,1,4,0,3,1,4,0,0,TRUE,Equal,0,4474,no
4,40,M,N,3,35,only2,4,5,blue,green,2,1,1,1,1,0,2,1,1,FALSE,Superior,0,5110,no
4,40,M,N,3,36,only1,4,5,red,black,1,1,1,1,3,1,6,0,1,FALSE,Superior,0,4642,no
5,57,M,N,1,1,exactly,5,7,red,green,4,1,3,1,3,0,3,0,2,?,Superior,57.44125326,7294,no
5,57,M,N,1,2,exactly,5,5,green,red,6,0,3,0,5,0,5,1,0,TRUE,Equal,98.95561358,6972,yes
5,57,M,N,1,3,less-than,6,6,red,blue,5,1,2,0,1,1,2,0,0,FALSE,Equal,77.80678851,5565,no
5,57,M,N,1,4,less-than,4,3,green,red,5,0,5,1,5,0,2,0,-1,TRUE,Inferior,67.62402089,4616,no
5,57,M,N,1,5,exactly,6,9,blue,yellow,2,0,6,1,3,1,2,0,3,?,Superior,13.8381201,9271,yes
5,57,M,N,1,6,exactly,4,2,green,red,5,0,1,1,5,0,5,0,-2,FALSE,Inferior,0.261096606,4599,no
5,57,M,N,1,7,no-more-than,5,7,blue,yellow,4,1,2,0,6,0,3,1,2,FALSE,Superior,0.261096606,5804,no
5,57,M,N,1,8,exactly,6,7,green,red,2,1,4,1,1,1,5,0,1,?,Superior,0.783289817,8306,no
5,57,M,N,1,9,no-more-than,6,3,blue,yellow,1,1,5,0,5,0,4,0,-3,TRUE,Inferior,2.088772846,8415,no
5,57,M,N,1,10,exactly,5,4,red,green,5,1,4,0,2,0,1,0,-1,FALSE,Inferior,98.43342037,3754,no
5,57,M,N,1,11,no-less-than,4,6,red,yellow,3,0,1,1,2,1,3,1,2,TRUE,Superior,1.305483029,7127,no
5,57,M,N,1,12,less-than,5,8,green,red,2,1,5,0,6,1,6,0,3,FALSE,Superior,1.566579634,6309,no
5,57,M,N,1,13,less-than,6,5,blue,black,2,0,2,0,1,1,4,0,-1,TRUE,Inferior,51.69712794,8521,no
5,57,M,N,1,14,exactly,5,5,blue,black,6,0,4,1,5,0,1,1,0,TRUE,Equal,98.95561358,4151,no
5,57,M,N,1,15,no-less-than,5,7,red,yellow,2,1,3,1,2,0,2,1,2,TRUE,Superior,13.8381201,21178,no
5,57,M,N,1,16,exactly,5,2,blue,red,6,0,3,0,1,1,5,0,-3,FALSE,Inferior,1.566579634,3756,no
5,57,M,N,1,17,exactly,6,6,green,yellow,1,1,5,0,6,0,5,1,0,TRUE,Equal,98.95561358,3192,no
5,57,M,N,1,18,exactly,4,5,red,black,1,1,4,1,2,0,6,0,1,?,Superior,0.261096606,3787,yes
5,57,M,N,1,19,no-less-than,6,9,blue,red,5,0,5,1,4,1,4,0,3,TRUE,Superior,1.044386423,7180,no
5,57,M,N,1,20,less-than,5,3,red,yellow,4,0,5,1,6,0,5,0,-2,TRUE,Inferior,1.566579634,6612,no
5,57,M,N,1,21,more-than,6,4,green,blue,2,0,2,1,5,0,6,0,-2,FALSE,Inferior,1.305483029,4753,no
5,57,M,N,1,22,no-more-than,6,8,green,red,1,1,1,0,3,1,4,1,2,FALSE,Superior,1.305483029,9061,no
5,57,M,N,1,23,less-than,6,8,green,blue,6,0,3,1,2,1,3,1,2,FALSE,Superior,1.305483029,6654,no
5,57,M,N,1,24,no-less-than,4,2,blue,black,5,0,5,0,1,0,2,1,-2,FALSE,Inferior,0.783289817,5552,no
5,57,M,N,1,25,no-less-than,5,2,blue,green,2,0,4,0,3,1,1,0,-3,FALSE,Inferior,2.349869452,7457,no
5,57,M,N,1,26,more-than,5,8,green,blue,3,1,5,0,1,1,4,1,3,TRUE,Superior,78.59007833,4814,no
5,57,M,N,1,27,more-than,6,6,green,black,6,0,4,1,1,1,1,1,0,FALSE,Equal,11.74934726,6613,no
5,57,M,N,1,28,no-more-than,6,7,blue,black,5,0,5,1,2,1,4,0,1,FALSE,Superior,4.177545692,11768,no
5,57,M,N,1,29,less-than,6,4,blue,red,4,0,5,0,2,1,5,0,-2,TRUE,Inferior,83.81201044,5807,no
5,57,M,N,1,30,more-than,4,5,red,blue,1,1,1,1,5,0,3,1,1,TRUE,Superior,87.98955614,4244,no
5,57,M,N,1,31,exactly,6,4,green,yellow,3,0,4,0,4,0,2,1,-2,FALSE,Inferior,2.872062663,2718,no
5,57,M,N,1,32,no-less-than,6,8,blue,black,4,1,4,1,1,0,5,0,2,TRUE,Superior,63.7075718,7497,no
5,57,M,N,1,33,exactly,5,6,blue,yellow,4,0,5,1,2,0,1,1,1,?,Superior,2.088772846,4037,yes
5,57,M,N,1,34,less-than,4,7,red,yellow,4,0,3,1,1,1,3,1,3,FALSE,Superior,4.438642298,6762,no
5,57,M,N,1,35,more-than,4,2,green,blue,4,0,1,1,5,0,1,0,-2,FALSE,Inferior,2.872062663,3829,no
5,57,M,N,1,36,no-less-than,4,4,green,black,1,1,4,0,3,1,6,0,0,TRUE,Equal,89.03394256,10712,no
5,57,M,N,1,37,exactly,6,9,green,yellow,5,1,2,0,2,1,2,1,3,?,Superior,1.044386423,3799,no
5,57,M,N,1,38,more-than,6,3,green,yellow,1,0,2,1,3,0,1,0,-3,FALSE,Inferior,1.566579634,5158,no
5,57,M,N,1,39,no-less-than,6,5,green,black,1,0,4,0,2,1,1,0,-1,FALSE,Inferior,0,9021,no
5,57,M,N,1,40,less-than,5,4,red,green,1,1,5,0,1,0,6,0,-1,TRUE,Inferior,84.85639687,9038,no
5,57,M,N,1,41,no-more-than,5,2,green,red,5,0,1,0,1,1,1,0,-3,TRUE,Inferior,2.610966057,6982,no
5,57,M,N,1,42,no-more-than,5,6,green,black,1,1,1,1,2,0,4,1,1,FALSE,Superior,0.261096606,6367,no
5,57,M,N,1,43,no-more-than,6,4,green,red,1,1,2,0,6,0,1,0,-2,TRUE,Inferior,1.044386423,5322,no
5,57,M,N,1,44,less-than,4,6,blue,green,6,0,3,1,2,0,3,1,2,FALSE,Superior,1.82767624,4171,no
5,57,M,N,1,45,no-less-than,5,3,green,red,1,1,6,0,6,0,1,0,-2,FALSE,Inferior,89.81723238,6320,no
5,57,M,N,1,46,no-less-than,6,6,blue,yellow,2,1,2,1,6,0,2,1,0,TRUE,Equal,93.21148825,6617,no
5,57,M,N,1,47,exactly,4,5,red,yellow,5,0,2,1,5,0,3,1,1,?,Superior,1.82767624,3089,no
5,57,M,N,1,48,no-less-than,5,4,blue,red,1,0,1,1,4,0,6,0,-1,FALSE,Inferior,2.872062663,6224,no
5,57,M,N,1,49,more-than,4,4,green,yellow,3,0,3,1,4,0,1,1,0,FALSE,Equal,1.82767624,4585,no
5,57,M,N,1,50,no-less-than,5,8,blue,black,4,1,1,0,3,1,1,1,3,TRUE,Superior,89.03394256,13318,no
5,57,M,N,1,51,no-less-than,5,6,green,black,3,0,3,1,2,0,3,1,1,TRUE,Superior,83.81201044,7831,no
5,57,M,N,1,52,exactly,5,8,green,black,2,1,5,0,6,1,2,0,3,?,Superior,2.872062663,3083,no
5,57,M,N,1,53,exactly,4,4,blue,green,3,0,4,0,4,1,6,0,0,TRUE,Equal,98.43342037,4093,yes
5,57,M,N,1,54,no-less-than,4,7,blue,black,2,1,5,0,2,1,3,1,3,TRUE,Superior,95.3002611,9211,no
5,57,M,N,1,55,no-less-than,5,5,red,yellow,2,1,2,1,1,1,5,0,0,TRUE,Equal,94.77806789,6004,no
5,57,M,N,1,56,exactly,5,5,green,blue,2,1,2,1,1,1,3,0,0,TRUE,Equal,98.43342037,4215,no
5,57,M,N,1,57,no-more-than,6,5,red,green,4,0,2,1,6,0,1,0,-1,TRUE,Inferior,2.088772846,5730,no
5,57,M,N,1,58,less-than,5,6,red,green,3,1,2,1,1,1,1,0,1,FALSE,Superior,2.088772846,6058,no
5,57,M,N,1,59,more-than,4,7,blue,red,2,1,3,1,2,1,3,0,3,TRUE,Superior,96.86684073,6429,no
5,57,M,N,1,60,no-more-than,5,8,red,yellow,3,1,1,1,4,1,4,0,3,FALSE,Superior,1.566579634,4336,no
5,57,M,N,1,61,exactly,6,6,red,yellow,5,0,1,0,2,0,6,1,0,TRUE,Equal,99.21671018,2746,yes
5,57,M,N,1,62,exactly,4,4,blue,black,2,1,6,0,5,0,2,1,0,TRUE,Equal,98.95561358,3626,no
5,57,M,N,1,63,no-more-than,4,4,green,black,4,0,3,1,1,1,2,0,0,TRUE,Equal,98.17232376,9981,no
5,57,M,N,1,64,no-less-than,4,1,red,blue,2,0,6,0,5,0,1,1,-3,FALSE,Inferior,1.566579634,5216,no
5,57,M,N,1,65,more-than,4,6,blue,yellow,2,1,2,1,2,1,2,0,2,TRUE,Superior,98.95561358,3597,no
5,57,M,N,1,66,no-more-than,4,7,green,black,2,1,2,1,3,1,6,0,3,FALSE,Superior,1.305483029,7001,no
5,57,M,N,1,67,more-than,5,3,red,green,1,0,3,0,6,1,6,0,-2,FALSE,Inferior,93.21148825,4544,no
5,57,M,N,1,68,no-more-than,4,1,blue,green,4,1,4,0,5,0,6,0,-3,TRUE,Inferior,93.99477807,9965,no
5,57,M,N,1,69,exactly,4,7,red,green,3,0,4,1,3,1,2,0,3,?,Superior,2.349869452,2883,yes
5,57,M,N,1,70,no-more-than,5,3,green,red,4,1,3,0,2,0,3,0,-2,TRUE,Inferior,2.088772846,9481,no
5,57,M,N,1,71,less-than,4,4,blue,red,2,1,6,0,2,1,1,0,0,FALSE,Equal,3.65535248,5031,no
5,57,M,N,1,72,more-than,4,3,blue,yellow,1,1,6,0,5,0,5,0,-1,FALSE,Inferior,0.522193211,4925,no
